acc_sum,block,block_c,condition,correct,correct_response,datetime,endtime,flanker,jitter,project,response,response_test_buffer_response,response_test_target_response,response_time,response_time_test_buffer_response,response_time_test_target_response,row_sel,session_number,start_end,starttime,subject_id,target,task,task_vers,time_test_buffer,time_test_buffer_response,time_test_constants,time_test_flanker,time_test_jitter,time_test_logger,time_test_target,time_test_target_response,time_test_variables,trial
0,prac,1,inc,0,m,Fri Aug 02 2024 13:10:47 GMT-0500 (Central Daylight Time),143776.0,brutal,1100,O,z,,,1058,,,8,1,3457.2999999523163,140318.70000004768,7005,window,AF,A,,,,,,,,,,1
1,prac,1,inc,1,z,Fri Aug 02 2024 13:10:47 GMT-0500 (Central Daylight Time),146715.40000009537,film,900,O,z,,,716,,,14,1,2930.4000000953674,143785.0,7005,hate,AF,A,,,,,,,,,,2
2,prac,1,inc,1,z,Fri Aug 02 2024 13:10:47 GMT-0500 (Central Daylight Time),149570.5,rock,900,O,z,,,649,,,10,1,2843.5999999046326,146726.90000009537,7005,kind,AF,A,,,,,,,,,,3
3,prac,1,con,1,m,Fri Aug 02 2024 13:10:47 GMT-0500 (Central Daylight Time),152576.20000004768,remote,1000,O,m,,,685,,,7,1,2992.9000000953674,149583.29999995232,7005,remote,AF,A,,,,,,,,,,4
4,prac,1,inc,1,m,Fri Aug 02 2024 13:10:47 GMT-0500 (Central Daylight Time),155682.10000014305,hate,1100,O,m,,,716,,,4,1,3091.2000000476837,152590.90000009537,7005,film,AF,A,,,,,,,,,,5
5,prac,1,inc,1,z,Fri Aug 02 2024 13:10:47 GMT-0500 (Central Daylight Time),158771.5,window,1100,O,z,,,672,,,16,1,3076.5,155695.0,7005,temper,AF,A,,,,,,,,,,6
6,prac,1,con,1,z,Fri Aug 02 2024 13:10:47 GMT-0500 (Central Daylight Time),161743.90000009537,rage,1000,O,z,,,652,,,15,1,2962.7000000476837,158781.20000004768,7005,rage,AF,A,,,,,,,,,,7
7,prac,1,con,1,z,Fri Aug 02 2024 13:10:47 GMT-0500 (Central Daylight Time),164716.40000009537,love,1000,O,z,,,663,,,11,1,2961.600000143051,161754.79999995232,7005,love,AF,A,,,,,,,,,,8
8,prac,1,con,1,m,Fri Aug 02 2024 13:10:47 GMT-0500 (Central Daylight Time),167439.10000014305,jacket,800,O,m,,,612,,,5,1,2712.4000000953674,164726.70000004768,7005,jacket,AF,A,,,,,,,,,,9
9,prac,1,con,1,m,Fri Aug 02 2024 13:10:47 GMT-0500 (Central Daylight Time),170294.10000014305,step,800,O,m,,,746,,,1,1,2845.2000000476837,167448.90000009537,7005,step,AF,A,,,,,,,,,,10
9,prac,1,inc,0,z,Fri Aug 02 2024 13:10:47 GMT-0500 (Central Daylight Time),173801.0,napkin,1100,O,m,,,1110,,,12,1,3497.399999856949,170303.60000014305,7005,friend,AF,A,,,,,,,,,,11
10,prac,1,inc,1,m,Fri Aug 02 2024 13:10:47 GMT-0500 (Central Daylight Time),176840.10000014305,kind,900,O,m,,,819,,,2,1,3026.5,173813.60000014305,7005,rock,AF,A,,,,,,,,,,12
11,prac,1,con,1,z,Fri Aug 02 2024 13:10:47 GMT-0500 (Central Daylight Time),179629.29999995232,brutal,800,O,z,,,690,,,13,1,2782.199999809265,176847.10000014305,7005,brutal,AF,A,,,,,,,,,,13
12,prac,1,con,1,m,Fri Aug 02 2024 13:10:47 GMT-0500 (Central Daylight Time),182534.90000009537,bell,1000,O,m,,,595,,,3,1,2892.7999999523163,179642.10000014305,7005,bell,AF,A,,,,,,,,,,14
13,prac,1,con,1,z,Fri Aug 02 2024 13:10:47 GMT-0500 (Central Daylight Time),185173.20000004768,elated,800,O,z,,,546,,,9,1,2628.0999999046326,182545.10000014305,7005,elated,AF,A,,,,,,,,,,15
14,prac,1,inc,1,m,Fri Aug 02 2024 13:10:47 GMT-0500 (Central Daylight Time),187945.29999995232,elated,900,O,m,,,576,,,6,1,2761.0999999046326,185184.20000004768,7005,napkin,AF,A,,,,,,,,,,16
1,test,1,inc,1,z,Fri Aug 02 2024 13:10:47 GMT-0500 (Central Daylight Time),210706.70000004768,film,1100,O,z,z,None,684,484.0,200.0,56,1,2312.9000000953674,208393.79999995232,7005,rage,AF,A,207371,207371,205559,206669,205559,207872,207170,207170,207871,1
2,test,1,inc,1,z,Fri Aug 02 2024 13:10:47 GMT-0500 (Central Daylight Time),212710.5,bell,1000,O,z,z,None,455,254.0,201.0,47,1,1996.3999998569489,210714.10000014305,7005,hate,AF,A,209609,209609,207879,208891,207879,209876,209407,209407,209875,2
3,test,1,con,1,m,Fri Aug 02 2024 13:10:47 GMT-0500 (Central Daylight Time),214898.70000004768,bell,1100,O,m,m,None,550,351.0,199.0,84,1,2179.5999999046326,212719.10000014305,7005,bell,AF,A,211696,211696,209884,210994,209884,212064,211496,211496,212064,3
4,test,1,con,1,m,Fri Aug 02 2024 13:10:47 GMT-0500 (Central Daylight Time),217185.10000014305,remote,1100,O,m,m,None,643,443.0,200.0,116,1,2278.9000000953674,214906.20000004768,7005,remote,AF,A,213900,213900,212071,213182,212071,214350,213700,213700,214350,4
5,test,1,con,1,m,Fri Aug 02 2024 13:10:47 GMT-0500 (Central Daylight Time),219156.20000004768,bell,900,O,m,m,None,540,340.0,200.0,82,1,1961.5999999046326,217194.60000014305,7005,bell,AF,A,215971,215971,214360,215269,214360,216321,215770,215770,216321,5
6,test,1,inc,1,z,Fri Aug 02 2024 13:10:47 GMT-0500 (Central Daylight Time),221092.70000004768,jacket,800,O,z,z,None,597,397.0,200.0,61,1,1925.5,219167.20000004768,7005,temper,AF,A,217858,217858,216332,217140,216333,218258,217657,217657,218258,6
7,test,1,inc,1,m,Fri Aug 02 2024 13:10:47 GMT-0500 (Central Daylight Time),222979.90000009537,rage,800,O,m,m,None,540,340.0,200.0,85,1,1876.6000001430511,221103.29999995232,7005,bell,AF,A,219795,219795,218268,219077,218269,220145,219594,219594,220145,7
8,test,1,con,1,z,Fri Aug 02 2024 13:10:47 GMT-0500 (Central Daylight Time),224883.0,love,800,O,z,z,None,558,358.0,200.0,17,1,1892.2999999523163,222990.70000004768,7005,love,AF,A,221681,221681,220156,220964,220156,222048,221481,221481,222048,8
9,test,1,con,1,m,Fri Aug 02 2024 13:10:47 GMT-0500 (Central Daylight Time),226937.79999995232,napkin,900,O,m,m,None,615,416.0,199.0,106,1,2044.1999998092651,224893.60000014305,7005,napkin,AF,A,223686,223686,222059,222968,222059,224103,223486,223486,224103,9
10,test,1,con,1,z,Fri Aug 02 2024 13:10:47 GMT-0500 (Central Daylight Time),228908.60000014305,rage,800,O,z,z,None,623,424.0,199.0,49,1,1958.2000000476837,226950.40000009537,7005,rage,AF,A,225639,225639,224115,224923,224116,226074,225440,225440,226074,10
10,test,1,inc,0,z,Fri Aug 02 2024 13:10:47 GMT-0500 (Central Daylight Time),231195.40000009537,film,1100,O,m,m,None,656,457.0,199.0,24,1,2277.100000143051,228918.29999995232,7005,love,AF,A,227894,227894,226083,227192,226084,228361,227694,227694,228360,11
11,test,1,con,1,m,Fri Aug 02 2024 13:10:47 GMT-0500 (Central Daylight Time),233266.5,jacket,800,O,m,m,None,750,551.0,199.0,97,1,2064.399999856949,231202.10000014305,7005,jacket,AF,A,229880,229880,228367,229180,228367,230432,229681,229681,230431,12
12,test,1,inc,1,m,Fri Aug 02 2024 13:10:47 GMT-0500 (Central Daylight Time),235637.60000014305,hate,1100,O,m,m,None,745,546.0,199.0,96,1,2360.4000000953674,233277.20000004768,7005,film,AF,A,232253,232253,230442,231551,230442,232803,232053,232053,232803,13
13,test,1,inc,1,z,Fri Aug 02 2024 13:10:47 GMT-0500 (Central Daylight Time),237524.90000009537,rock,900,O,z,z,None,440,239.0,201.0,46,1,1877.1000001430511,235647.79999995232,7005,hate,AF,A,234440,234440,232813,233723,232813,234690,234238,234238,234690,14
14,test,1,con,1,z,Fri Aug 02 2024 13:10:47 GMT-0500 (Central Daylight Time),239611.90000009537,kind,1100,O,z,z,None,456,256.0,200.0,12,1,2078.9000000953674,237533.0,7005,kind,AF,A,236511,236511,234698,235809,234698,236777,236310,236310,236777,15
15,test,1,con,1,z,Fri Aug 02 2024 13:10:47 GMT-0500 (Central Daylight Time),241733.10000014305,elated,1100,O,z,z,None,496,297.0,199.0,4,1,2113.0,239620.10000014305,7005,elated,AF,A,238598,238598,236785,237896,236785,238898,238398,238398,238898,16
16,test,1,inc,1,z,Fri Aug 02 2024 13:10:47 GMT-0500 (Central Daylight Time),243736.79999995232,rock,900,O,z,z,None,565,350.0,215.0,22,1,1994.5999999046326,241742.20000004768,7005,love,AF,A,240536,240536,238907,239817,238907,240902,240320,240320,240902,17
17,test,1,con,1,z,Fri Aug 02 2024 13:10:47 GMT-0500 (Central Daylight Time),245724.20000004768,friend,800,O,z,z,None,646,431.0,215.0,25,1,1976.9000000953674,243747.29999995232,7005,friend,AF,A,242456,242456,240912,241721,240913,242889,242240,242240,242889,18
18,test,1,con,1,m,Fri Aug 02 2024 13:10:47 GMT-0500 (Central Daylight Time),247945.0,window,1100,O,m,m,None,576,377.0,199.0,124,1,2211.0,245734.0,7005,window,AF,A,244726,244726,242899,244009,242899,245110,244526,244526,245110,19
19,test,1,inc,1,z,Fri Aug 02 2024 13:10:47 GMT-0500 (Central Daylight Time),249965.70000004768,rock,900,O,z,z,None,596,397.0,199.0,54,1,2011.0,247954.70000004768,7005,rage,AF,A,246730,246730,245120,246029,245120,247131,246531,246531,247131,20
20,test,1,con,1,m,Fri Aug 02 2024 13:10:47 GMT-0500 (Central Daylight Time),252153.20000004768,napkin,1000,O,m,m,None,659,460.0,199.0,107,1,2179.5,249973.70000004768,7005,napkin,AF,A,248851,248851,247139,248150,247139,249318,248652,248652,249318,21
21,test,1,con,1,m,Fri Aug 02 2024 13:10:47 GMT-0500 (Central Daylight Time),254374.5,step,1000,O,m,m,None,678,479.0,199.0,67,1,2210.0999999046326,252164.40000009537,7005,step,AF,A,251056,251056,249329,250338,249330,251540,250856,250856,251540,22
22,test,1,inc,1,m,Fri Aug 02 2024 13:10:47 GMT-0500 (Central Daylight Time),256678.60000014305,hate,1100,O,m,m,None,662,463.0,199.0,80,1,2296.100000143051,254382.5,7005,rock,AF,A,253376,253376,251548,252659,251548,253844,253177,253177,253844,23
23,test,1,con,1,z,Fri Aug 02 2024 13:10:47 GMT-0500 (Central Daylight Time),258749.5,hate,800,O,z,z,None,722,522.0,200.0,41,1,2063.899999856949,256685.60000014305,7005,hate,AF,A,255381,255381,253851,254663,253851,255915,255180,255180,255915,24
24,test,1,inc,1,z,Fri Aug 02 2024 13:10:47 GMT-0500 (Central Daylight Time),261003.79999995232,window,1100,O,z,z,None,606,407.0,199.0,8,1,2244.5,258759.29999995232,7005,elated,AF,A,257752,257752,255924,257034,255925,258169,257552,257552,258169,25
25,test,1,con,1,z,Fri Aug 02 2024 13:10:47 GMT-0500 (Central Daylight Time),263275.0,temper,900,O,z,z,None,834,633.0,201.0,58,1,2263.2999999523163,261011.70000004768,7005,temper,AF,A,259806,259806,258177,259088,258177,260440,259605,259605,260440,26
26,test,1,con,1,z,Fri Aug 02 2024 13:10:47 GMT-0500 (Central Daylight Time),265529.7000000477,love,1000,O,z,z,None,702,502.0,200.0,19,1,2249.0,263280.7000000477,7005,love,AF,A,262178,262178,260446,261459,260446,262695,261977,261977,262695,27
27,test,1,inc,1,m,Fri Aug 02 2024 13:10:47 GMT-0500 (Central Daylight Time),267600.0,love,1000,O,m,m,None,518,319.0,199.0,71,1,2063.0,265537.0,7005,step,AF,A,264432,264432,262702,263714,262702,264765,264232,264232,264765,28
28,test,1,con,1,m,Fri Aug 02 2024 13:10:47 GMT-0500 (Central Daylight Time),269804.5,bell,1000,O,m,m,None,655,456.0,199.0,83,1,2196.399999856949,267608.10000014305,7005,bell,AF,A,266502,266503,264773,265784,264773,266970,266303,266303,266969,29
29,test,1,con,1,m,Fri Aug 02 2024 13:10:47 GMT-0500 (Central Daylight Time),272860.90000009537,step,900,O,m,m,None,1609,1409.0,200.0,66,1,3048.4000000953674,269812.5,7005,step,AF,A,268606,268606,266978,267889,266978,270026,268406,268406,270026,30
30,test,1,inc,1,z,Fri Aug 02 2024 13:10:47 GMT-0500 (Central Daylight Time),274847.2999999523,napkin,900,O,z,z,None,561,361.0,200.0,62,1,1978.2999999523163,272869.0,7005,temper,AF,A,271646,271646,270034,270944,270034,272013,271445,271445,272012,31
31,test,1,inc,1,m,Fri Aug 02 2024 13:10:47 GMT-0500 (Central Daylight Time),276985.2000000477,kind,900,O,m,m,None,693,493.0,200.0,94,1,2129.0999999046326,274856.10000014305,7005,film,AF,A,273650,273650,272021,272932,272021,274150,273449,273449,274150,32
32,test,1,con,1,z,Fri Aug 02 2024 13:10:47 GMT-0500 (Central Daylight Time),279106.10000014305,elated,800,O,z,z,None,784,584.0,200.0,1,1,2110.5,276995.60000014305,7005,elated,AF,A,275687,275687,274161,274969,274161,276271,275486,275486,276271,33
33,test,1,inc,1,m,Fri Aug 02 2024 13:10:47 GMT-0500 (Central Daylight Time),281210.2000000477,brutal,900,O,m,m,None,666,467.0,199.0,118,1,2096.0999999046326,279114.10000014305,7005,remote,AF,A,277908,277908,276279,277190,276279,278375,277708,277708,278375,34
34,test,1,con,1,m,Fri Aug 02 2024 13:10:47 GMT-0500 (Central Daylight Time),283397.2999999523,step,1100,O,m,m,None,562,363.0,199.0,68,1,2181.5,281215.7999999523,7005,step,AF,A,280196,280196,278381,279494,278381,280562,279996,279996,280562,35
35,test,1,inc,1,m,Fri Aug 02 2024 13:10:47 GMT-0500 (Central Daylight Time),285569.7999999523,temper,1000,O,m,m,None,628,427.0,201.0,127,1,2164.899999856949,283404.90000009537,7005,window,AF,A,282300,282300,280570,281582,280570,282735,282098,282098,282735,36
36,test,1,con,1,m,Fri Aug 02 2024 13:10:47 GMT-0500 (Central Daylight Time),287455.0,film,900,O,m,m,None,436,235.0,201.0,90,1,1880.0,285575.0,7005,film,AF,A,284372,284372,282740,283653,282740,284620,284170,284170,284620,37
36,test,1,inc,0,z,Fri Aug 02 2024 13:10:47 GMT-0500 (Central Daylight Time),289609.5,remote,1000,O,m,m,None,615,416.0,199.0,31,1,2145.7000000476837,287463.7999999523,7005,friend,AF,A,286358,286358,284629,285640,284629,286775,286158,286158,286774,38
36,test,1,con,0,z,Fri Aug 02 2024 13:10:47 GMT-0500 (Central Daylight Time),291630.10000014305,friend,1100,O,m,m,None,389,188.0,201.0,28,1,2015.2000000476837,289614.90000009537,7005,friend,AF,A,288595,288595,286780,287893,286780,288795,288394,288394,288795,39
37,test,1,con,1,m,Fri Aug 02 2024 13:10:47 GMT-0500 (Central Daylight Time),293684.0,rock,1000,O,m,m,None,530,331.0,199.0,75,1,2044.8999998569489,291639.10000014305,7005,rock,AF,A,290516,290516,288804,289814,288804,290849,290316,290316,290849,40
37,test,1,con,0,z,Fri Aug 02 2024 13:10:47 GMT-0500 (Central Daylight Time),295638.40000009537,hate,1000,O,m,m,None,412,211.0,201.0,43,1,1946.7999999523163,293691.60000014305,7005,hate,AF,A,292588,292588,290857,291869,290857,292803,292386,292386,292803,41
38,test,1,con,1,z,Fri Aug 02 2024 13:10:47 GMT-0500 (Central Daylight Time),297692.0,brutal,1100,O,z,z,None,431,231.0,200.0,36,1,2046.0,295646.0,7005,brutal,AF,A,294624,294624,292811,293922,292811,294857,294423,294423,294857,42
39,test,1,con,1,z,Fri Aug 02 2024 13:10:47 GMT-0500 (Central Daylight Time),299629.5,temper,1100,O,z,z,None,313,113.0,200.0,60,1,1929.3999998569489,297700.10000014305,7005,temper,AF,A,296678,296678,294865,295976,294865,296795,296477,296477,296794,43
40,test,1,con,1,z,Fri Aug 02 2024 13:10:47 GMT-0500 (Central Daylight Time),301632.7999999523,love,1100,O,z,z,None,351,151.0,200.0,20,1,1994.2999999523163,299638.5,7005,love,AF,A,298632,298632,296804,297914,296804,298798,298431,298431,298798,44
41,test,1,con,1,m,Fri Aug 02 2024 13:10:47 GMT-0500 (Central Daylight Time),303253.2000000477,film,800,O,m,m,None,280,80.0,200.0,89,1,1613.2000000476837,301640.0,7005,film,AF,A,300335,300335,298805,299617,298805,300418,300134,300134,300418,45
42,test,1,con,1,z,Fri Aug 02 2024 13:10:47 GMT-0500 (Central Daylight Time),305357.7999999523,friend,1000,O,z,z,None,579,380.0,199.0,27,1,2098.2999999523163,303259.5,7005,friend,AF,A,302138,302139,300425,301437,300425,302523,301939,301939,302523,46
42,test,1,inc,0,z,Fri Aug 02 2024 13:10:47 GMT-0500 (Central Daylight Time),307344.40000009537,bell,1000,O,m,m,None,453,253.0,200.0,55,1,1977.9000000953674,305366.5,7005,rage,AF,A,304242,304242,302532,303541,302532,304509,304042,304042,304509,47
43,test,1,con,1,m,Fri Aug 02 2024 13:10:47 GMT-0500 (Central Daylight Time),309248.0,jacket,1000,O,m,m,None,376,177.0,199.0,99,1,1893.2000000476837,307354.7999999523,7005,jacket,AF,A,306230,306230,304520,305528,304520,306413,306030,306030,306413,48
44,test,1,inc,1,m,Fri Aug 02 2024 13:10:47 GMT-0500 (Central Daylight Time),311402.0,love,1000,O,m,m,None,617,418.0,199.0,95,1,2146.2000000476837,309255.7999999523,7005,film,AF,A,308133,308133,306421,307432,306421,308567,307933,307933,308567,49
45,test,1,con,1,z,Fri Aug 02 2024 13:10:47 GMT-0500 (Central Daylight Time),313407.2999999523,temper,1000,O,z,z,None,462,262.0,200.0,59,1,1996.5999999046326,311410.7000000477,7005,temper,AF,A,310305,310305,308576,309586,308576,310572,310104,310104,310572,50
46,test,1,con,1,m,Fri Aug 02 2024 13:10:47 GMT-0500 (Central Daylight Time),315209.0,jacket,900,O,m,m,None,350,150.0,200.0,98,1,1794.7000000476837,313414.2999999523,7005,jacket,AF,A,312208,312208,310579,311490,310580,312374,312008,312008,312374,51
47,test,1,inc,1,z,Fri Aug 02 2024 13:10:47 GMT-0500 (Central Daylight Time),317430.2000000477,window,1100,O,z,z,None,588,388.0,200.0,40,1,2214.5999999046326,315215.60000014305,7005,brutal,AF,A,314195,314195,312381,313494,312381,314595,313995,313995,314595,52
47,test,1,inc,0,z,Fri Aug 02 2024 13:10:47 GMT-0500 (Central Daylight Time),319367.5,jacket,800,O,m,m,None,587,387.0,200.0,29,1,1929.0999999046326,317438.40000009537,7005,friend,AF,A,316132,316132,314603,315414,314604,316533,315932,315932,316533,53
48,test,1,con,1,m,Fri Aug 02 2024 13:10:47 GMT-0500 (Central Daylight Time),321538.40000009537,rock,1100,O,m,m,None,524,324.0,200.0,76,1,2160.7999999523163,319377.60000014305,7005,rock,AF,A,318371,318371,316543,317652,316543,318703,318170,318170,318703,54
49,test,1,inc,1,m,Fri Aug 02 2024 13:10:47 GMT-0500 (Central Daylight Time),323492.0,brutal,900,O,m,m,None,530,330.0,200.0,102,1,1944.2000000476837,321547.7999999523,7005,jacket,AF,A,320324,320325,318713,319622,318713,320657,320124,320124,320657,55
50,test,1,inc,1,m,Fri Aug 02 2024 13:10:47 GMT-0500 (Central Daylight Time),325496.10000014305,kind,900,O,m,m,None,568,369.0,199.0,86,1,1995.4000000953674,323500.7000000477,7005,bell,AF,A,322277,322277,320666,321576,320666,322661,322077,322078,322661,56
51,test,1,inc,1,m,Fri Aug 02 2024 13:10:47 GMT-0500 (Central Daylight Time),327516.2999999523,kind,900,O,m,m,None,581,381.0,200.0,78,1,2009.8999998569489,325506.40000009537,7005,rock,AF,A,324298,324298,322671,323580,322672,324681,324098,324098,324681,57
52,test,1,con,1,z,Fri Aug 02 2024 13:10:47 GMT-0500 (Central Daylight Time),329219.60000014305,temper,800,O,z,z,None,379,180.0,199.0,57,1,1694.0,327525.60000014305,7005,temper,AF,A,326201,326202,324691,325500,324691,326385,326002,326002,326385,58
53,test,1,con,1,z,Fri Aug 02 2024 13:10:47 GMT-0500 (Central Daylight Time),331106.90000009537,elated,1000,O,z,z,None,356,157.0,199.0,3,1,1878.5,329228.40000009537,7005,elated,AF,A,328105,328106,326393,327404,326394,328272,327906,327906,328272,59
54,test,1,con,1,m,Fri Aug 02 2024 13:10:47 GMT-0500 (Central Daylight Time),332893.7999999523,window,900,O,m,m,None,338,138.0,200.0,122,1,1780.3999998569489,331113.40000009537,7005,window,AF,A,329909,329909,328278,329191,328279,330059,329709,329709,330059,60
55,test,1,inc,1,m,Fri Aug 02 2024 13:10:47 GMT-0500 (Central Daylight Time),335097.90000009537,friend,1100,O,m,m,None,550,350.0,200.0,104,1,2197.7999999523163,332900.10000014305,7005,jacket,AF,A,331896,331897,330065,331178,330065,332263,331696,331696,332263,61
55,test,1,con,0,z,Fri Aug 02 2024 13:10:47 GMT-0500 (Central Daylight Time),336984.7000000477,brutal,900,O,m,m,None,459,259.0,200.0,34,1,1878.0999999046326,335106.60000014305,7005,brutal,AF,A,333883,333884,332272,333182,332272,334150,333683,333683,334150,62
56,test,1,inc,1,z,Fri Aug 02 2024 13:10:47 GMT-0500 (Central Daylight Time),338972.10000014305,napkin,900,O,z,z,None,541,341.0,200.0,38,1,1980.6000001430511,336991.5,7005,brutal,AF,A,335786,335786,334157,335069,334157,336137,335586,335586,336137,63
57,test,1,inc,1,m,Fri Aug 02 2024 13:10:47 GMT-0500 (Central Daylight Time),340792.2000000477,rage,800,O,m,m,None,484,284.0,200.0,77,1,1812.5999999046326,338979.60000014305,7005,rock,AF,A,337658,337658,336145,336956,336145,337957,337457,337457,337957,64
58,test,1,inc,1,m,Fri Aug 02 2024 13:10:47 GMT-0500 (Central Daylight Time),342963.0,temper,1000,O,m,m,None,647,448.0,199.0,119,1,2164.399999856949,340798.60000014305,7005,remote,AF,A,339678,339678,337964,338976,337964,340128,339478,339478,340128,65
59,test,1,con,1,z,Fri Aug 02 2024 13:10:47 GMT-0500 (Central Daylight Time),345066.90000009537,brutal,1000,O,z,z,None,557,356.0,201.0,35,1,2098.5,342968.40000009537,7005,brutal,AF,A,341866,341866,340133,341148,340134,342232,341664,341664,342232,66
60,test,1,inc,1,m,Fri Aug 02 2024 13:10:47 GMT-0500 (Central Daylight Time),346904.5,elated,800,O,m,m,None,510,310.0,200.0,101,1,1834.7999999523163,345069.7000000477,7005,jacket,AF,A,343753,343753,342235,343051,342235,344070,343552,343552,344070,67
61,test,1,con,1,m,Fri Aug 02 2024 13:10:47 GMT-0500 (Central Daylight Time),348741.5,remote,800,O,m,m,None,513,313.0,200.0,113,1,1829.2999999523163,346912.2000000477,7005,remote,AF,A,345590,345590,344077,344888,344077,345907,345389,345389,345906,68
62,test,1,inc,1,m,Fri Aug 02 2024 13:10:47 GMT-0500 (Central Daylight Time),351045.40000009537,friend,1100,O,m,m,None,654,454.0,200.0,120,1,2294.100000143051,348751.2999999523,7005,remote,AF,A,347744,347744,345916,347026,345917,348211,347543,347543,348210,69
63,test,1,inc,1,z,Fri Aug 02 2024 13:10:47 GMT-0500 (Central Daylight Time),352982.7999999523,napkin,900,O,z,z,None,494,295.0,199.0,30,1,1934.6999998092651,351048.10000014305,7005,friend,AF,A,349848,349848,348213,349130,348213,350148,349648,349648,350148,70
64,test,1,con,1,m,Fri Aug 02 2024 13:10:47 GMT-0500 (Central Daylight Time),355153.60000014305,jacket,1100,O,m,m,None,525,325.0,200.0,100,1,2162.300000190735,352991.2999999523,7005,jacket,AF,A,351986,351986,350156,351268,350157,352319,351785,351785,352319,71
65,test,1,con,1,z,Fri Aug 02 2024 13:10:47 GMT-0500 (Central Daylight Time),357024.10000014305,kind,900,O,z,z,None,426,227.0,199.0,10,1,1862.5,355161.60000014305,7005,kind,AF,A,353956,353956,352327,353238,352327,354189,353756,353756,354189,72
66,test,1,con,1,z,Fri Aug 02 2024 13:10:47 GMT-0500 (Central Daylight Time),359061.2999999523,friend,900,O,z,z,None,604,405.0,199.0,26,1,2026.6999998092651,357034.60000014305,7005,friend,AF,A,355810,355810,354200,355108,354200,356226,355610,355610,356226,73
67,test,1,inc,1,m,Fri Aug 02 2024 13:10:47 GMT-0500 (Central Daylight Time),360881.5,rage,800,O,m,m,None,476,275.0,201.0,93,1,1812.2000000476837,359069.2999999523,7005,film,AF,A,357764,357764,356234,357046,356234,358047,357563,357563,358046,74
68,test,1,inc,1,m,Fri Aug 02 2024 13:10:47 GMT-0500 (Central Daylight Time),362969.10000014305,love,1000,O,m,m,None,535,335.0,200.0,79,1,2080.800000190735,360888.2999999523,7005,rock,AF,A,359784,359784,358053,359066,358054,360134,359583,359583,360134,75
69,test,1,con,1,m,Fri Aug 02 2024 13:10:47 GMT-0500 (Central Daylight Time),365373.60000014305,remote,1000,O,m,m,None,873,673.0,200.0,115,1,2395.9000000953674,362977.7000000477,7005,remote,AF,A,361854,361854,360143,361153,360143,362539,361654,361654,362539,76
70,test,1,con,1,m,Fri Aug 02 2024 13:10:47 GMT-0500 (Central Daylight Time),367043.0,napkin,800,O,m,m,None,337,123.0,214.0,105,1,1659.0999999046326,365383.90000009537,7005,napkin,AF,A,364075,364075,362549,363358,362549,364208,363861,363861,364208,77
71,test,1,inc,1,z,Fri Aug 02 2024 13:10:47 GMT-0500 (Central Daylight Time),368914.2999999523,step,800,O,z,z,None,525,325.0,200.0,53,1,1864.0,367050.2999999523,7005,rage,AF,A,365746,365746,364215,365028,364216,366079,365545,365545,366079,78
72,test,1,con,1,m,Fri Aug 02 2024 13:10:47 GMT-0500 (Central Daylight Time),370934.90000009537,rock,900,O,m,m,None,578,378.0,200.0,74,1,2008.4000000953674,368926.5,7005,rock,AF,A,367717,367717,366092,366998,366092,368100,367516,367516,368100,79
73,test,1,inc,1,m,Fri Aug 02 2024 13:10:47 GMT-0500 (Central Daylight Time),373005.0,temper,1000,O,m,m,None,524,321.0,203.0,103,1,2060.2000000476837,370944.7999999523,7005,jacket,AF,A,369838,369838,368110,369119,368110,370170,369635,369635,370170,80
74,test,1,con,1,z,Fri Aug 02 2024 13:10:47 GMT-0500 (Central Daylight Time),375243.7000000477,hate,1100,O,z,z,None,590,390.0,200.0,44,1,2231.0,373012.7000000477,7005,hate,AF,A,372008,372008,370178,371290,370178,372409,371807,371807,372409,81
75,test,1,inc,1,z,Fri Aug 02 2024 13:10:47 GMT-0500 (Central Daylight Time),377380.40000009537,window,1100,O,z,z,None,513,313.0,200.0,64,1,2128.9000000953674,375251.5,7005,temper,AF,A,374229,374229,372417,373527,372417,374545,374028,374028,374545,82
76,test,1,inc,1,z,Fri Aug 02 2024 13:10:47 GMT-0500 (Central Daylight Time),379451.40000009537,remote,1000,O,z,z,None,531,332.0,199.0,7,1,2061.4000000953674,377390.0,7005,elated,AF,A,376283,376283,374555,375565,374555,376617,376083,376083,376616,83
77,test,1,con,1,m,Fri Aug 02 2024 13:10:47 GMT-0500 (Central Daylight Time),381238.2999999523,rock,800,O,m,m,None,462,262.0,200.0,73,1,1779.0999999046326,379459.2000000477,7005,rock,AF,A,378137,378137,376624,377435,376625,378403,377936,377936,378403,84
78,test,1,inc,1,m,Fri Aug 02 2024 13:10:47 GMT-0500 (Central Daylight Time),383476.2999999523,hate,1100,O,m,m,None,607,407.0,200.0,88,1,2228.399999856949,381247.90000009537,7005,bell,AF,A,380224,380224,378413,379522,378413,380641,380023,380023,380641,85
79,test,1,inc,1,m,Fri Aug 02 2024 13:10:47 GMT-0500 (Central Daylight Time),385796.5,hate,1100,O,m,m,None,672,472.0,200.0,72,1,2310.7000000476837,383485.7999999523,7005,step,AF,A,382479,382479,380651,381760,380651,382962,382278,382278,382961,86
80,test,1,con,1,m,Fri Aug 02 2024 13:10:47 GMT-0500 (Central Daylight Time),387683.40000009537,remote,900,O,m,m,None,456,257.0,199.0,114,1,1879.1000001430511,385804.2999999523,7005,remote,AF,A,384582,384582,382969,383880,382970,384848,384382,384382,384848,87
80,test,1,inc,0,z,Fri Aug 02 2024 13:10:47 GMT-0500 (Central Daylight Time),389654.5,bell,1000,O,m,m,None,429,229.0,200.0,15,1,1962.0,387692.5,7005,kind,AF,A,386586,386586,384858,385868,384858,386820,386385,386385,386819,88
81,test,1,inc,1,m,Fri Aug 02 2024 13:10:47 GMT-0500 (Central Daylight Time),391775.2999999523,friend,1100,O,m,m,None,477,278.0,199.0,112,1,2111.5999999046326,389663.7000000477,7005,napkin,AF,A,388657,388657,386829,387939,386829,388940,388457,388457,388940,89
82,test,1,con,1,z,Fri Aug 02 2024 13:10:47 GMT-0500 (Central Daylight Time),393595.10000014305,brutal,800,O,z,z,None,481,282.0,199.0,33,1,1808.4000000953674,391786.7000000477,7005,brutal,AF,A,390477,390477,388952,389759,388952,390760,390277,390277,390760,90
83,test,1,inc,1,z,Fri Aug 02 2024 13:10:47 GMT-0500 (Central Daylight Time),395431.60000014305,step,800,O,z,z,None,509,310.0,199.0,45,1,1827.5,393604.10000014305,7005,hate,AF,A,392280,392280,390769,391578,390769,392597,392081,392081,392597,91
84,test,1,con,1,z,Fri Aug 02 2024 13:10:47 GMT-0500 (Central Daylight Time),397202.2000000477,elated,900,O,z,z,None,324,124.0,200.0,2,1,1760.0,395442.2000000477,7005,elated,AF,A,394235,394235,392607,393516,392607,394367,394034,394034,394367,92
85,test,1,con,1,m,Fri Aug 02 2024 13:10:47 GMT-0500 (Central Daylight Time),399157.0,film,1100,O,m,m,None,323,123.0,200.0,92,1,1944.5999999046326,397212.40000009537,7005,film,AF,A,396188,396188,394377,395486,394378,396322,395987,395987,396322,93
86,test,1,inc,1,m,Fri Aug 02 2024 13:10:47 GMT-0500 (Central Daylight Time),401260.0,temper,1000,O,m,m,None,557,357.0,200.0,111,1,2091.2999999523163,399168.7000000477,7005,napkin,AF,A,398058,398058,396334,397340,396334,398425,397858,397858,398425,94
87,test,1,inc,1,m,Fri Aug 02 2024 13:10:47 GMT-0500 (Central Daylight Time),403115.40000009537,kind,900,O,m,m,None,417,218.0,199.0,70,1,1847.1000001430511,401268.2999999523,7005,step,AF,A,400062,400062,398433,399345,398434,400280,399862,399862,400280,95
88,test,1,con,1,z,Fri Aug 02 2024 13:10:47 GMT-0500 (Central Daylight Time),404984.2000000477,rage,1000,O,z,z,None,319,118.0,201.0,51,1,1863.4000000953674,403120.7999999523,7005,rage,AF,A,402016,402016,400286,401299,400286,402149,401815,401815,402149,96
88,test,1,con,0,z,Fri Aug 02 2024 13:10:47 GMT-0500 (Central Daylight Time),406754.40000009537,hate,900,O,m,m,None,340,140.0,200.0,42,1,1760.1000001430511,404994.2999999523,7005,hate,AF,A,403770,403770,402159,403068,402159,403919,403569,403569,403919,97
89,test,1,inc,1,m,Fri Aug 02 2024 13:10:47 GMT-0500 (Central Daylight Time),408642.2999999523,rage,800,O,m,m,None,568,368.0,200.0,69,1,1879.8999998569489,406762.40000009537,7005,step,AF,A,405439,405439,403927,404738,403928,405807,405239,405239,405807,98
90,test,1,con,1,m,Fri Aug 02 2024 13:10:47 GMT-0500 (Central Daylight Time),410378.40000009537,bell,800,O,m,m,None,390,191.0,199.0,81,1,1725.4000000953674,408653.0,7005,bell,AF,A,407343,407344,405818,406626,405818,407544,407143,407143,407543,99
90,test,1,inc,0,z,Fri Aug 02 2024 13:10:47 GMT-0500 (Central Daylight Time),412465.2000000477,film,1100,O,m,m,None,442,242.0,200.0,16,1,2080.2000000476837,410385.0,7005,kind,AF,A,409381,409381,407550,408663,407550,409630,409180,409180,409630,100
91,test,1,con,1,z,Fri Aug 02 2024 13:10:47 GMT-0500 (Central Daylight Time),414202.2000000477,kind,800,O,z,z,None,391,191.0,200.0,9,1,1729.2999999523163,412472.90000009537,7005,kind,AF,A,411168,411168,409638,410449,409638,411367,410967,410967,411367,101
92,test,1,inc,1,m,Fri Aug 02 2024 13:10:47 GMT-0500 (Central Daylight Time),416122.7000000477,elated,800,O,m,m,None,600,400.0,200.0,117,1,1911.0999999046326,414211.60000014305,7005,remote,AF,A,412887,412887,411377,412185,411377,413288,412687,412687,413288,102
93,test,1,inc,1,m,Fri Aug 02 2024 13:10:47 GMT-0500 (Central Daylight Time),417960.7000000477,elated,800,O,m,m,None,511,311.0,200.0,109,1,1829.0,416131.7000000477,7005,napkin,AF,A,414808,414808,413297,414106,413297,415126,414607,414607,415126,103
94,test,1,inc,1,m,Fri Aug 02 2024 13:10:47 GMT-0500 (Central Daylight Time),419964.2999999523,brutal,900,O,m,m,None,565,365.0,200.0,126,1,1999.3999998569489,417964.90000009537,7005,window,AF,A,416762,416762,415130,416044,415130,417129,416561,416561,417129,104
95,test,1,inc,1,z,Fri Aug 02 2024 13:10:47 GMT-0500 (Central Daylight Time),421883.2000000477,jacket,800,O,z,z,None,597,398.0,199.0,37,1,1909.2999999523163,419973.90000009537,7005,brutal,AF,A,418649,418649,417139,417947,417139,419048,418449,418449,419048,105
96,test,1,con,1,z,Fri Aug 02 2024 13:10:47 GMT-0500 (Central Daylight Time),423821.2999999523,rage,900,O,z,z,None,505,306.0,199.0,50,1,1931.7999999523163,421889.5,7005,rage,AF,A,420669,420669,419055,419967,419055,420986,420469,420469,420986,106
97,test,1,con,1,m,Fri Aug 02 2024 13:10:47 GMT-0500 (Central Daylight Time),425540.2000000477,window,800,O,m,m,None,379,180.0,199.0,121,1,1709.5999999046326,423830.60000014305,7005,window,AF,A,422523,422523,420996,421805,420996,422705,422323,422323,422705,107
98,test,1,con,1,m,Fri Aug 02 2024 13:10:47 GMT-0500 (Central Daylight Time),427460.7999999523,window,1000,O,m,m,None,371,172.0,199.0,123,1,1913.2999999523163,425547.5,7005,window,AF,A,424443,424443,422713,423725,422713,424626,424243,424243,424626,108
98,test,1,con,0,z,Fri Aug 02 2024 13:10:47 GMT-0500 (Central Daylight Time),429532.2000000477,rage,1100,O,m,m,None,439,240.0,199.0,52,1,2063.4000000953674,427468.7999999523,7005,rage,AF,A,426447,426447,424634,425745,424634,426697,426247,426247,426697,109
99,test,1,con,1,m,Fri Aug 02 2024 13:10:47 GMT-0500 (Central Daylight Time),431586.5,step,800,O,m,m,None,717,518.0,199.0,65,1,2043.0999999046326,429543.40000009537,7005,step,AF,A,428217,428217,426708,427515,426709,428752,428017,428017,428752,110
100,test,1,inc,1,z,Fri Aug 02 2024 13:10:47 GMT-0500 (Central Daylight Time),433573.10000014305,rock,900,O,z,z,None,538,338.0,200.0,14,1,1975.9000000953674,431597.2000000477,7005,kind,AF,A,430389,430389,428762,429671,428763,430738,430188,430188,430738,111
101,test,1,inc,1,m,Fri Aug 02 2024 13:10:47 GMT-0500 (Central Daylight Time),435510.10000014305,brutal,900,O,m,m,None,496,296.0,200.0,110,1,1927.4000000953674,433582.7000000477,7005,napkin,AF,A,432375,432375,430748,431657,430748,432675,432174,432174,432675,112
102,test,1,inc,1,z,Fri Aug 02 2024 13:10:47 GMT-0500 (Central Daylight Time),437430.2999999523,jacket,800,O,z,z,None,587,387.0,200.0,5,1,1907.5999999046326,435522.7000000477,7005,elated,AF,A,434196,434196,432688,433494,432689,434595,433995,433995,434595,113
103,test,1,inc,1,m,Fri Aug 02 2024 13:10:47 GMT-0500 (Central Daylight Time),439568.2999999523,friend,1100,O,m,m,None,494,295.0,199.0,128,1,2129.5,437438.7999999523,7005,window,AF,A,436432,436432,434604,435715,434604,436733,436233,436233,436733,114
104,test,1,con,1,z,Fri Aug 02 2024 13:10:47 GMT-0500 (Central Daylight Time),441371.0,love,900,O,z,z,None,372,172.0,200.0,18,1,1792.5999999046326,439578.40000009537,7005,love,AF,A,438354,438354,436743,437652,436744,438536,438153,438153,438536,115
104,test,1,inc,0,z,Fri Aug 02 2024 13:10:47 GMT-0500 (Central Daylight Time),443291.7999999523,remote,1000,O,m,m,None,397,197.0,200.0,63,1,1912.7999999523163,441379.0,7005,temper,AF,A,440257,440258,438544,439555,438544,440457,440057,440057,440457,116
105,test,1,inc,1,m,Fri Aug 02 2024 13:10:47 GMT-0500 (Central Daylight Time),445162.2999999523,elated,800,O,m,m,None,533,334.0,199.0,125,1,1859.5999999046326,443302.7000000477,7005,window,AF,A,441977,441977,440468,441275,440468,442328,441777,441777,442327,117
106,test,1,con,1,m,Fri Aug 02 2024 13:10:47 GMT-0500 (Central Daylight Time),447066.2000000477,film,1000,O,m,m,None,383,183.0,200.0,91,1,1894.5,445171.7000000477,7005,film,AF,A,444048,444048,442337,443346,442337,444231,443847,443847,444231,118
107,test,1,con,1,m,Fri Aug 02 2024 13:10:47 GMT-0500 (Central Daylight Time),449220.5,napkin,1100,O,m,m,None,523,323.0,200.0,108,1,2141.0999999046326,447079.40000009537,7005,napkin,AF,A,446052,446052,444244,445350,444245,446386,445851,445851,446386,119
108,test,1,inc,1,z,Fri Aug 02 2024 13:10:47 GMT-0500 (Central Daylight Time),451107.10000014305,step,800,O,z,z,None,540,341.0,199.0,21,1,1877.2000000476837,449229.90000009537,7005,love,AF,A,447922,447922,446395,447204,446395,448272,447722,447722,448272,120
109,test,1,inc,1,z,Fri Aug 02 2024 13:10:47 GMT-0500 (Central Daylight Time),453227.7000000477,film,1100,O,z,z,None,474,273.0,201.0,48,1,2110.4000000953674,451117.2999999523,7005,hate,AF,A,450110,450110,448282,449392,448283,450393,449908,449908,450393,121
110,test,1,inc,1,m,Fri Aug 02 2024 13:10:47 GMT-0500 (Central Daylight Time),455282.2999999523,love,1000,O,m,m,None,517,317.0,200.0,87,1,2045.7999999523163,453236.5,7005,bell,AF,A,452130,452130,450402,451420,450402,452447,451930,451930,452447,122
111,test,1,inc,1,z,Fri Aug 02 2024 13:10:47 GMT-0500 (Central Daylight Time),457152.0,step,800,O,z,z,None,526,326.0,200.0,13,1,1862.7999999523163,455289.2000000477,7005,kind,AF,A,453985,453985,452454,453266,452454,454317,453784,453784,454317,123
112,test,1,inc,1,z,Fri Aug 02 2024 13:10:47 GMT-0500 (Central Daylight Time),459239.7999999523,bell,1000,O,z,z,None,560,361.0,199.0,23,1,2077.199999809265,457162.60000014305,7005,love,AF,A,456038,456038,454328,455336,454328,456405,455838,455838,456405,124
112,test,1,inc,0,z,Fri Aug 02 2024 13:10:47 GMT-0500 (Central Daylight Time),461393.7000000477,window,1100,O,m,m,None,525,325.0,200.0,32,1,2144.7000000476837,459249.0,7005,friend,AF,A,458225,458226,456414,457524,456414,458559,458025,458025,458559,125
112,test,1,inc,0,z,Fri Aug 02 2024 13:10:47 GMT-0500 (Central Daylight Time),463298.10000014305,remote,1000,O,m,m,None,366,166.0,200.0,39,1,1893.8000001907349,461404.2999999523,7005,brutal,AF,A,460296,460297,458569,459579,458570,460463,460096,460096,460463,126
113,test,1,con,1,z,Fri Aug 02 2024 13:10:47 GMT-0500 (Central Daylight Time),465551.40000009537,kind,1000,O,z,z,None,711,510.0,201.0,11,1,2239.0,463312.40000009537,7005,kind,AF,A,462200,462200,460477,461482,460478,462716,461999,461999,462716,127
114,test,1,inc,1,z,Fri Aug 02 2024 13:10:47 GMT-0500 (Central Daylight Time),467456.0,napkin,900,O,z,z,None,469,269.0,200.0,6,1,1894.5,465561.5,7005,elated,AF,A,464338,464338,462727,463636,462727,464621,464137,464137,464621,128
