acc_sum,block,block_c,condition,correct,correct_response,datetime,endtime,flanker,jitter,project,response,response_test_buffer_response,response_test_target_response,response_time,response_time_test_buffer_response,response_time_test_target_response,row_sel,session_number,start_end,starttime,subject_id,target,task,task_vers,time_test_buffer,time_test_buffer_response,time_test_constants,time_test_flanker,time_test_jitter,time_test_logger,time_test_target,time_test_target_response,time_test_variables,trial
1,prac,1,inc,1,z,Wed Sep 25 2024 08:42:05 GMT-0500 (Central Daylight Time),133108.0,rock,900,I,z,,,762,,,10,1,2961.2000000029802,130146.79999999702,8004,kind,AF,C,,,,,,,,,,1
1,prac,1,con,0,z,Wed Sep 25 2024 08:42:05 GMT-0500 (Central Daylight Time),135773.69999999925,elated,800,I,m,,,576,,,9,1,2660.60000000149,133113.09999999776,8004,elated,AF,C,,,,,,,,,,2
2,prac,1,inc,1,m,Wed Sep 25 2024 08:42:05 GMT-0500 (Central Daylight Time),138689.5,elated,900,I,m,,,715,,,6,1,2911.400000002235,135778.09999999776,8004,napkin,AF,C,,,,,,,,,,3
3,prac,1,con,1,m,Wed Sep 25 2024 08:42:05 GMT-0500 (Central Daylight Time),141738.59999999776,bell,1000,I,m,,,747,,,3,1,3044.89999999851,138693.69999999925,8004,bell,AF,C,,,,,,,,,,4
4,prac,1,inc,1,z,Wed Sep 25 2024 08:42:05 GMT-0500 (Central Daylight Time),144672.0,film,900,I,z,,,716,,,14,1,2928.400000002235,141743.59999999776,8004,hate,AF,C,,,,,,,,,,5
5,prac,1,con,1,z,Wed Sep 25 2024 08:42:05 GMT-0500 (Central Daylight Time),147653.5,brutal,800,I,z,,,878,,,13,1,2976.900000002235,144676.59999999776,8004,brutal,AF,C,,,,,,,,,,6
6,prac,1,con,1,m,Wed Sep 25 2024 08:42:05 GMT-0500 (Central Daylight Time),150668.8999999985,remote,1000,I,m,,,719,,,7,1,3011.0,147657.8999999985,8004,remote,AF,C,,,,,,,,,,7
6,prac,1,inc,0,z,Wed Sep 25 2024 08:42:05 GMT-0500 (Central Daylight Time),154018.29999999702,napkin,1100,I,m,,,939,,,12,1,3345.39999999851,150672.8999999985,8004,friend,AF,C,,,,,,,,,,8
7,prac,1,inc,1,m,Wed Sep 25 2024 08:42:05 GMT-0500 (Central Daylight Time),157250.19999999925,brutal,1100,I,m,,,831,,,8,1,3227.60000000149,154022.59999999776,8004,window,AF,C,,,,,,,,,,9
8,prac,1,inc,1,z,Wed Sep 25 2024 08:42:05 GMT-0500 (Central Daylight Time),160449.29999999702,window,1100,I,z,,,773,,,16,1,3194.5,157254.79999999702,8004,temper,AF,C,,,,,,,,,,10
9,prac,1,con,1,z,Wed Sep 25 2024 08:42:05 GMT-0500 (Central Daylight Time),163281.79999999702,rage,1000,I,z,,,531,,,15,1,2827.5,160454.29999999702,8004,rage,AF,C,,,,,,,,,,11
10,prac,1,inc,1,m,Wed Sep 25 2024 08:42:05 GMT-0500 (Central Daylight Time),166231.09999999776,kind,900,I,m,,,735,,,2,1,2945.300000000745,163285.79999999702,8004,rock,AF,C,,,,,,,,,,12
11,prac,1,con,1,m,Wed Sep 25 2024 08:42:05 GMT-0500 (Central Daylight Time),169296.5,jacket,800,I,m,,,966,,,5,1,3061.300000000745,166235.19999999925,8004,jacket,AF,C,,,,,,,,,,13
12,prac,1,inc,1,m,Wed Sep 25 2024 08:42:05 GMT-0500 (Central Daylight Time),172395.29999999702,hate,1100,I,m,,,695,,,4,1,3094.699999999255,169300.59999999776,8004,film,AF,C,,,,,,,,,,14
13,prac,1,con,1,z,Wed Sep 25 2024 08:42:05 GMT-0500 (Central Daylight Time),175195.79999999702,love,1000,I,z,,,496,,,11,1,2796.0,172399.79999999702,8004,love,AF,C,,,,,,,,,,15
14,prac,1,con,1,m,Wed Sep 25 2024 08:42:05 GMT-0500 (Central Daylight Time),177977.09999999776,step,800,I,m,,,674,,,1,1,2776.39999999851,175200.69999999925,8004,step,AF,C,,,,,,,,,,16
1,test,1,con,1,z,Wed Sep 25 2024 08:42:05 GMT-0500 (Central Daylight Time),199987.0,friend,900,I,z,z,None,773,574.0,199.0,26,1,2212.2000000029802,197774.79999999702,8004,friend,AF,C,190337,190337,188708,189621,188708,190920,190137,190137,190920,1
2,test,1,con,1,z,Wed Sep 25 2024 08:42:05 GMT-0500 (Central Daylight Time),201919.69999999925,hate,800,I,z,z,None,586,386.0,200.0,41,1,1927.9000000022352,199991.79999999702,8004,hate,AF,C,192453,192453,190925,191736,190925,192853,192253,192253,192853,2
3,test,1,con,1,m,Wed Sep 25 2024 08:42:05 GMT-0500 (Central Daylight Time),203902.29999999702,napkin,800,I,m,m,None,636,437.0,199.0,105,1,1978.2999999970198,201924.0,8004,napkin,AF,C,194386,194386,192857,193669,192857,194835,194186,194186,194835,3
3,test,1,inc,0,z,Wed Sep 25 2024 08:42:05 GMT-0500 (Central Daylight Time),206034.69999999925,napkin,900,I,m,m,None,714,422.0,292.0,6,1,2128.199999999255,203906.5,8004,elated,AF,C,196545,196545,194840,195752,194840,196968,196253,196253,196968,4
4,test,1,inc,1,z,Wed Sep 25 2024 08:42:05 GMT-0500 (Central Daylight Time),208334.59999999776,remote,1000,I,z,z,None,754,554.0,200.0,63,1,2296.300000000745,206038.29999999702,8004,temper,AF,C,198701,198701,196971,197984,196972,199268,198501,198501,199268,5
5,test,1,con,1,m,Wed Sep 25 2024 08:42:05 GMT-0500 (Central Daylight Time),210317.09999999776,step,800,I,m,m,None,647,447.0,200.0,65,1,1978.5999999977648,208338.5,8004,step,AF,C,200800,200800,199272,200084,199272,201250,200600,200600,201250,6
6,test,1,con,1,m,Wed Sep 25 2024 08:42:05 GMT-0500 (Central Daylight Time),212466.29999999702,bell,800,I,m,m,None,816,616.0,200.0,81,1,2145.39999999851,210320.8999999985,8004,bell,AF,C,202783,202783,201254,202067,201254,203399,202583,202583,203399,7
7,test,1,con,1,z,Wed Sep 25 2024 08:42:05 GMT-0500 (Central Daylight Time),214832.3999999985,kind,1100,I,z,z,None,718,519.0,199.0,12,1,2362.199999999255,212470.19999999925,8004,kind,AF,C,205232,205232,203403,204516,203404,205765,205033,205033,205765,8
8,test,1,con,1,m,Wed Sep 25 2024 08:42:05 GMT-0500 (Central Daylight Time),216798.09999999776,jacket,900,I,m,m,None,529,329.0,200.0,98,1,1961.800000000745,214836.29999999702,8004,jacket,AF,C,207398,207398,205769,206682,205770,207731,207198,207198,207731,9
9,test,1,inc,1,m,Wed Sep 25 2024 08:42:05 GMT-0500 (Central Daylight Time),218930.69999999925,temper,1000,I,m,m,None,599,399.0,200.0,127,1,2128.699999999255,216802.0,8004,window,AF,C,209464,209464,207735,208748,207735,209864,209264,209264,209864,10
10,test,1,con,1,m,Wed Sep 25 2024 08:42:05 GMT-0500 (Central Daylight Time),221346.69999999925,remote,900,I,m,m,None,982,782.0,200.0,114,1,2411.900000002235,218934.79999999702,8004,remote,AF,C,211497,211497,209868,210781,209868,212280,211297,211297,212280,11
11,test,1,inc,1,m,Wed Sep 25 2024 08:42:05 GMT-0500 (Central Daylight Time),223246.09999999776,rage,800,I,m,m,None,562,362.0,200.0,93,1,1895.300000000745,221350.79999999702,8004,film,AF,C,213813,213813,212284,213098,212284,214179,213613,213613,214179,12
12,test,1,inc,1,z,Wed Sep 25 2024 08:42:05 GMT-0500 (Central Daylight Time),225645.3999999985,window,1100,I,z,z,None,755,555.0,200.0,40,1,2395.300000000745,223250.09999999776,8004,brutal,AF,C,216012,216012,214183,215296,214183,216578,215812,215812,216578,13
13,test,1,inc,1,z,Wed Sep 25 2024 08:42:05 GMT-0500 (Central Daylight Time),228061.29999999702,window,1100,I,z,z,None,779,580.0,199.0,64,1,2412.0,225649.29999999702,8004,temper,AF,C,218411,218411,216582,217695,216583,218994,218212,218212,218994,14
14,test,1,inc,1,z,Wed Sep 25 2024 08:42:05 GMT-0500 (Central Daylight Time),230227.09999999776,napkin,900,I,z,z,None,715,515.0,200.0,30,1,2161.699999999255,228065.3999999985,8004,friend,AF,C,220644,220644,218998,219941,218999,221160,220444,220444,221160,15
15,test,1,inc,1,m,Wed Sep 25 2024 08:42:05 GMT-0500 (Central Daylight Time),232476.59999999776,friend,1100,I,m,m,None,604,389.0,215.0,120,1,2245.89999999851,230230.69999999925,8004,remote,AF,C,223010,223010,221164,222277,221164,223410,222795,222795,223410,16
16,test,1,con,1,m,Wed Sep 25 2024 08:42:05 GMT-0500 (Central Daylight Time),234859.19999999925,jacket,1100,I,m,m,None,747,548.0,199.0,100,1,2378.699999999255,232480.5,8004,jacket,AF,C,225243,225243,223414,224526,223414,225792,225043,225043,225792,17
17,test,1,con,1,m,Wed Sep 25 2024 08:42:05 GMT-0500 (Central Daylight Time),236991.79999999702,rock,1000,I,m,m,None,594,393.0,201.0,75,1,2128.7999999970198,234863.0,8004,rock,AF,C,227526,227526,225796,226809,225796,227925,227325,227325,227925,18
18,test,1,con,1,z,Wed Sep 25 2024 08:42:05 GMT-0500 (Central Daylight Time),239091.29999999702,hate,900,I,z,z,None,657,457.0,200.0,42,1,2095.5,236995.79999999702,8004,hate,AF,C,229558,229558,227929,228841,227929,230024,229358,229358,230024,19
19,test,1,inc,1,z,Wed Sep 25 2024 08:42:05 GMT-0500 (Central Daylight Time),241040.69999999925,jacket,800,I,z,z,None,610,410.0,200.0,37,1,1945.4000000022352,239095.29999999702,8004,brutal,AF,C,231557,231557,230028,230841,230029,231974,231357,231357,231974,20
20,test,1,inc,1,z,Wed Sep 25 2024 08:42:05 GMT-0500 (Central Daylight Time),243223.3999999985,napkin,900,I,z,z,None,735,536.0,199.0,38,1,2178.800000000745,241044.59999999776,8004,brutal,AF,C,233607,233607,231978,232890,231978,234156,233407,233407,234156,21
21,test,1,con,1,m,Wed Sep 25 2024 08:42:05 GMT-0500 (Central Daylight Time),245139.29999999702,jacket,800,I,m,m,None,574,374.0,200.0,97,1,1910.3999999985099,243228.8999999985,8004,jacket,AF,C,235689,235689,234162,234973,234162,236072,235489,235489,236072,22
22,test,1,con,1,m,Wed Sep 25 2024 08:42:05 GMT-0500 (Central Daylight Time),247639.69999999925,bell,900,I,m,m,None,1054,854.0,200.0,82,1,2495.900000002235,245143.79999999702,8004,bell,AF,C,237705,237705,236077,236989,236077,238573,237505,237505,238573,23
23,test,1,inc,1,m,Wed Sep 25 2024 08:42:05 GMT-0500 (Central Daylight Time),249754.59999999776,kind,900,I,m,m,None,665,466.0,199.0,70,1,2110.5,247644.09999999776,8004,step,AF,C,240205,240205,238577,239488,238577,240688,240005,240005,240688,24
24,test,1,inc,1,m,Wed Sep 25 2024 08:42:05 GMT-0500 (Central Daylight Time),251820.59999999776,brutal,900,I,m,m,None,622,422.0,200.0,110,1,2062.099999997765,249758.5,8004,napkin,AF,C,242321,242321,240692,241604,240692,242754,242121,242121,242754,25
25,test,1,inc,1,m,Wed Sep 25 2024 08:42:05 GMT-0500 (Central Daylight Time),253753.19999999925,brutal,900,I,m,m,None,484,284.0,200.0,102,1,1928.300000000745,251824.8999999985,8004,jacket,AF,C,244387,244387,242758,243672,242758,244686,244187,244187,244686,26
26,test,1,inc,1,z,Wed Sep 25 2024 08:42:05 GMT-0500 (Central Daylight Time),255669.19999999925,step,800,I,z,z,None,571,372.0,199.0,53,1,1912.1000000014901,253757.09999999776,8004,rage,AF,C,246220,246220,244690,245504,244690,246602,246020,246020,246602,27
27,test,1,inc,1,z,Wed Sep 25 2024 08:42:05 GMT-0500 (Central Daylight Time),257752.09999999776,jacket,800,I,z,z,None,734,535.0,199.0,61,1,2079.099999997765,255673.0,8004,temper,AF,C,248136,248136,246606,247419,246606,248685,247935,247936,248685,28
28,test,1,inc,1,z,Wed Sep 25 2024 08:42:05 GMT-0500 (Central Daylight Time),259951.3999999985,bell,1000,I,z,z,None,653,453.0,200.0,47,1,2195.60000000149,257755.79999999702,8004,hate,AF,C,250418,250418,248689,249702,248689,250884,250218,250218,250884,29
29,test,1,inc,1,z,Wed Sep 25 2024 08:42:05 GMT-0500 (Central Daylight Time),262133.8999999985,film,1100,I,z,z,None,546,346.0,200.0,48,1,2178.800000000745,259955.09999999776,8004,hate,AF,C,252717,252717,250888,252001,250888,253067,252517,252517,253067,30
30,test,1,inc,1,z,Wed Sep 25 2024 08:42:05 GMT-0500 (Central Daylight Time),264433.3999999985,film,1100,I,z,z,None,651,451.0,200.0,24,1,2295.89999999851,262137.5,8004,love,AF,C,254900,254900,253071,254184,253071,255366,254700,254700,255366,31
31,test,1,con,1,m,Wed Sep 25 2024 08:42:05 GMT-0500 (Central Daylight Time),266483.59999999776,window,900,I,m,m,None,615,416.0,199.0,122,1,2046.5,264437.09999999776,8004,window,AF,C,256999,256999,255370,256284,255371,257417,256800,256800,257417,32
32,test,1,con,1,z,Wed Sep 25 2024 08:42:05 GMT-0500 (Central Daylight Time),268815.3999999985,friend,800,I,z,z,None,985,786.0,199.0,25,1,2327.89999999851,266487.5,8004,friend,AF,C,258949,258949,257421,258232,257421,259748,258749,258749,259748,33
33,test,1,inc,1,z,Wed Sep 25 2024 08:42:05 GMT-0500 (Central Daylight Time),271048.0,bell,1000,I,z,z,None,685,486.0,199.0,55,1,2229.0,268819.0,8004,rage,AF,C,261481,261481,259752,260765,259752,261981,261281,261282,261981,34
34,test,1,con,1,m,Wed Sep 25 2024 08:42:05 GMT-0500 (Central Daylight Time),273147.19999999925,napkin,900,I,m,m,None,657,457.0,200.0,106,1,2095.10000000149,271052.09999999776,8004,napkin,AF,C,263614,263614,261985,262897,261985,264080,263414,263414,264080,35
35,test,1,inc,1,m,Wed Sep 25 2024 08:42:05 GMT-0500 (Central Daylight Time),275230.0,brutal,900,I,m,m,None,652,437.0,215.0,118,1,2078.900000002235,273151.09999999776,8004,remote,AF,C,265714,265714,264084,264997,264084,266163,265498,265498,266163,36
36,test,1,inc,1,m,Wed Sep 25 2024 08:42:05 GMT-0500 (Central Daylight Time),277678.8999999985,friend,1100,I,m,m,None,811,611.0,200.0,104,1,2445.199999999255,275233.69999999925,8004,jacket,AF,C,267996,267996,266167,267279,266167,268612,267796,267796,268612,37
37,test,1,con,1,m,Wed Sep 25 2024 08:42:05 GMT-0500 (Central Daylight Time),279745.09999999776,jacket,1000,I,m,m,None,518,318.0,200.0,99,1,2062.39999999851,277682.69999999925,8004,jacket,AF,C,270345,270345,268616,269629,268616,270678,270145,270145,270678,38
38,test,1,inc,1,z,Wed Sep 25 2024 08:42:05 GMT-0500 (Central Daylight Time),282244.3999999985,window,1100,I,z,z,None,864,664.0,200.0,32,1,2495.60000000149,279748.799999997,8004,friend,AF,C,272511,272511,270682,271795,270682,273177,272311,272311,273177,39
39,test,1,inc,1,z,Wed Sep 25 2024 08:42:05 GMT-0500 (Central Daylight Time),284577.09999999776,remote,1000,I,z,z,None,785,585.0,200.0,7,1,2328.599999997765,282248.5,8004,elated,AF,C,274910,274910,273182,274194,273182,275510,274710,274710,275510,40
40,test,1,inc,1,z,Wed Sep 25 2024 08:42:05 GMT-0500 (Central Daylight Time),286609.59999999776,napkin,900,I,z,z,None,592,391.0,201.0,62,1,2029.0,284580.59999999776,8004,temper,AF,C,277144,277144,275514,276427,275514,277543,276943,276943,277543,41
41,test,1,inc,1,z,Wed Sep 25 2024 08:42:05 GMT-0500 (Central Daylight Time),288475.69999999925,step,800,I,z,z,None,530,330.0,200.0,13,1,1862.199999999255,286613.5,8004,kind,AF,C,279077,279077,277547,278359,277547,279409,278877,278877,279409,42
42,test,1,con,1,m,Wed Sep 25 2024 08:42:05 GMT-0500 (Central Daylight Time),290758.19999999925,napkin,1000,I,m,m,None,736,537.0,199.0,107,1,2278.60000000149,288479.59999999776,8004,napkin,AF,C,281142,281142,279413,280425,279413,281691,280942,280942,281691,43
43,test,1,inc,1,m,Wed Sep 25 2024 08:42:05 GMT-0500 (Central Daylight Time),293174.3999999985,kind,900,I,m,m,None,970,770.0,200.0,86,1,2412.39999999851,290762.0,8004,bell,AF,C,283325,283325,281695,282608,281695,284108,283124,283124,284107,44
44,test,1,inc,1,m,Wed Sep 25 2024 08:42:05 GMT-0500 (Central Daylight Time),295406.8999999985,hate,1100,I,m,m,None,595,395.0,200.0,96,1,2228.699999999255,293178.19999999925,8004,film,AF,C,285940,285940,284111,285224,284111,286340,285740,285740,286340,45
45,test,1,con,1,z,Wed Sep 25 2024 08:42:05 GMT-0500 (Central Daylight Time),297556.19999999925,brutal,900,I,z,z,None,714,514.0,200.0,34,1,2145.5,295410.69999999925,8004,brutal,AF,C,287973,287973,286344,287256,286344,288489,287773,287773,288489,46
46,test,1,inc,1,m,Wed Sep 25 2024 08:42:05 GMT-0500 (Central Daylight Time),299602.59999999776,kind,900,I,m,m,None,613,413.0,200.0,78,1,2042.5,297560.09999999776,8004,rock,AF,C,290122,290122,288493,289406,288493,290536,289922,289922,290536,47
47,test,1,inc,1,m,Wed Sep 25 2024 08:42:05 GMT-0500 (Central Daylight Time),301571.59999999776,kind,900,I,m,m,None,523,323.0,200.0,94,1,1965.0999999977648,299606.5,8004,film,AF,C,292172,292172,290540,291455,290540,292505,291972,291972,292505,48
47,test,1,con,0,z,Wed Sep 25 2024 08:42:05 GMT-0500 (Central Daylight Time),303421.09999999776,rage,800,I,m,m,None,512,313.0,199.0,49,1,1845.800000000745,301575.299999997,8004,rage,AF,C,294038,294038,292508,293321,292509,294354,293838,293838,294354,49
48,test,1,inc,1,m,Wed Sep 25 2024 08:42:05 GMT-0500 (Central Daylight Time),305337.299999997,brutal,900,I,m,m,None,476,276.0,200.0,126,1,1912.5,303424.799999997,8004,window,AF,C,295987,295987,294358,295271,294358,296270,295787,295787,296270,50
49,test,1,con,1,z,Wed Sep 25 2024 08:42:05 GMT-0500 (Central Daylight Time),307536.299999997,friend,1100,I,z,z,None,567,368.0,199.0,28,1,2195.39999999851,305340.8999999985,8004,friend,AF,C,298087,298087,296274,297386,296274,298469,297887,297887,298469,51
50,test,1,inc,1,m,Wed Sep 25 2024 08:42:05 GMT-0500 (Central Daylight Time),309319.299999997,elated,800,I,m,m,None,443,244.0,199.0,101,1,1779.3999999985099,307539.8999999985,8004,jacket,AF,C,300003,300003,298473,299286,298473,300252,299803,299803,300252,52
51,test,1,con,1,z,Wed Sep 25 2024 08:42:05 GMT-0500 (Central Daylight Time),311335.09999999776,temper,800,I,z,z,None,670,470.0,200.0,57,1,2011.8999999985099,309323.19999999925,8004,temper,AF,C,301785,301785,300256,301069,300256,302268,301585,301585,302268,53
52,test,1,con,1,m,Wed Sep 25 2024 08:42:05 GMT-0500 (Central Daylight Time),313634.3999999985,window,1100,I,m,m,None,666,466.0,200.0,124,1,2295.300000000745,311339.09999999776,8004,window,AF,C,304101,304101,302272,303385,302272,304567,303901,303901,304567,54
53,test,1,con,1,m,Wed Sep 25 2024 08:42:05 GMT-0500 (Central Daylight Time),315650.59999999776,film,800,I,m,m,None,674,475.0,199.0,89,1,2012.699999999255,313637.8999999985,8004,film,AF,C,306100,306100,304571,305384,304571,306584,305901,305901,306584,55
54,test,1,inc,1,z,Wed Sep 25 2024 08:42:05 GMT-0500 (Central Daylight Time),317533.299999997,jacket,800,I,z,z,None,537,338.0,199.0,29,1,1879.0,315654.299999997,8004,friend,AF,C,308117,308117,306587,307400,306588,308466,307917,307917,308466,56
55,test,1,inc,1,z,Wed Sep 25 2024 08:42:05 GMT-0500 (Central Daylight Time),319649.19999999925,rock,900,I,z,z,None,668,468.0,200.0,22,1,2112.10000000149,317537.09999999776,8004,love,AF,C,310099,310099,308470,309383,308470,310582,309899,309899,310582,57
56,test,1,con,1,m,Wed Sep 25 2024 08:42:05 GMT-0500 (Central Daylight Time),321815.19999999925,window,1000,I,m,m,None,628,428.0,200.0,123,1,2161.900000002235,319653.299999997,8004,window,AF,C,312315,312315,310586,311599,310587,312748,312115,312115,312748,58
57,test,1,inc,1,m,Wed Sep 25 2024 08:42:05 GMT-0500 (Central Daylight Time),323681.19999999925,elated,800,I,m,m,None,510,309.0,201.0,109,1,1862.199999999255,321819.0,8004,napkin,AF,C,314298,314298,312752,313565,312752,314614,314096,314096,314614,59
57,test,1,con,0,z,Wed Sep 25 2024 08:42:05 GMT-0500 (Central Daylight Time),325930.59999999776,elated,1100,I,m,m,None,600,400.0,200.0,4,1,2245.599999997765,323685.0,8004,elated,AF,C,316447,316447,314618,315731,314618,316864,316247,316247,316864,60
58,test,1,con,1,z,Wed Sep 25 2024 08:42:05 GMT-0500 (Central Daylight Time),327913.5,temper,1000,I,z,z,None,433,234.0,199.0,59,1,1979.1000000014901,325934.3999999985,8004,temper,AF,C,318597,318597,316867,317880,316868,318847,318397,318397,318846,61
59,test,1,con,1,m,Wed Sep 25 2024 08:42:05 GMT-0500 (Central Daylight Time),330079.3999999985,step,1000,I,m,m,None,620,420.0,200.0,67,1,2162.0,327917.3999999985,8004,step,AF,C,320579,320579,318850,319863,318851,321012,320379,320379,321012,62
60,test,1,con,1,m,Wed Sep 25 2024 08:42:05 GMT-0500 (Central Daylight Time),332528.299999997,bell,1100,I,m,m,None,809,610.0,199.0,84,1,2445.099999997765,330083.19999999925,8004,bell,AF,C,322845,322845,321016,322129,321016,323461,322645,322646,323461,63
61,test,1,con,1,z,Wed Sep 25 2024 08:42:05 GMT-0500 (Central Daylight Time),334695.799999997,elated,800,I,z,z,None,820,620.0,200.0,1,1,2163.89999999851,332531.8999999985,8004,elated,AF,C,324995,324995,323465,324278,323465,325629,324795,324795,325629,64
62,test,1,inc,1,m,Wed Sep 25 2024 08:42:05 GMT-0500 (Central Daylight Time),336743.8999999985,rage,800,I,m,m,None,702,502.0,200.0,85,1,2044.300000000745,334699.59999999776,8004,bell,AF,C,327161,327161,325633,326444,325633,327677,326961,326961,327677,65
63,test,1,inc,1,m,Wed Sep 25 2024 08:42:05 GMT-0500 (Central Daylight Time),338943.19999999925,friend,1100,I,m,m,None,560,361.0,199.0,128,1,2195.699999999255,336747.5,8004,window,AF,C,329510,329510,327681,328794,327681,329876,329310,329310,329876,66
64,test,1,con,1,m,Wed Sep 25 2024 08:42:05 GMT-0500 (Central Daylight Time),340825.799999997,film,900,I,m,m,None,434,234.0,200.0,90,1,1879.0,338946.799999997,8004,film,AF,C,331509,331509,329880,330793,329880,331759,331309,331309,331759,67
65,test,1,inc,1,m,Wed Sep 25 2024 08:42:05 GMT-0500 (Central Daylight Time),342658.5,elated,800,I,m,m,None,499,299.0,200.0,125,1,1829.0,340829.5,8004,window,AF,C,333292,333292,331763,332576,331763,333592,333092,333092,333592,68
66,test,1,inc,1,z,Wed Sep 25 2024 08:42:05 GMT-0500 (Central Daylight Time),344858.19999999925,window,1100,I,z,z,None,550,350.0,200.0,8,1,2196.10000000149,342662.09999999776,8004,elated,AF,C,335425,335425,333595,334708,333595,335791,335225,335225,335791,69
67,test,1,con,1,m,Wed Sep 25 2024 08:42:05 GMT-0500 (Central Daylight Time),346923.799999997,film,1000,I,m,m,None,522,214.0,308.0,91,1,2061.89999999851,344861.8999999985,8004,film,AF,C,337633,337633,335795,336808,335795,337857,337324,337324,337857,70
68,test,1,inc,1,z,Wed Sep 25 2024 08:42:05 GMT-0500 (Central Daylight Time),349006.799999997,step,800,I,z,z,None,744,545.0,199.0,45,1,2079.099999997765,346927.69999999925,8004,hate,AF,C,339390,339390,337861,338674,337861,339940,339191,339191,339940,71
69,test,1,con,1,z,Wed Sep 25 2024 08:42:05 GMT-0500 (Central Daylight Time),351206.0,love,1100,I,z,z,None,561,362.0,199.0,20,1,2193.900000002235,349012.09999999776,8004,love,AF,C,341773,341773,339945,341056,339945,342139,341573,341573,342139,72
70,test,1,inc,1,m,Wed Sep 25 2024 08:42:05 GMT-0500 (Central Daylight Time),353188.799999997,temper,1000,I,m,m,None,439,239.0,200.0,103,1,1979.0,351209.799999997,8004,jacket,AF,C,343872,343872,342143,343155,342143,344122,343672,343672,344122,73
71,test,1,con,1,z,Wed Sep 25 2024 08:42:05 GMT-0500 (Central Daylight Time),355304.799999997,brutal,800,I,z,z,None,768,568.0,200.0,33,1,2112.199999999255,353192.59999999776,8004,brutal,AF,C,345655,345655,344126,344938,344126,346238,345455,345455,346238,74
72,test,1,con,1,z,Wed Sep 25 2024 08:42:05 GMT-0500 (Central Daylight Time),357437.3999999985,brutal,1000,I,z,z,None,588,388.0,200.0,35,1,2128.89999999851,355308.5,8004,brutal,AF,C,347971,347971,346242,347254,346242,348371,347771,347771,348370,75
73,test,1,con,1,m,Wed Sep 25 2024 08:42:05 GMT-0500 (Central Daylight Time),359670.09999999776,step,1100,I,m,m,None,586,387.0,199.0,68,1,2229.0,357441.09999999776,8004,step,AF,C,350204,350204,348374,349487,348374,350603,350004,350004,350603,76
74,test,1,con,1,z,Wed Sep 25 2024 08:42:05 GMT-0500 (Central Daylight Time),361652.799999997,love,800,I,z,z,None,639,439.0,200.0,17,1,1979.0,359673.799999997,8004,love,AF,C,352136,352136,350607,351420,350607,352586,351936,351936,352586,77
75,test,1,inc,1,z,Wed Sep 25 2024 08:42:05 GMT-0500 (Central Daylight Time),363685.3999999985,remote,1000,I,z,z,None,495,296.0,199.0,31,1,2028.699999999255,361656.69999999925,8004,friend,AF,C,354319,354319,352590,353602,352590,354618,354119,354119,354618,78
76,test,1,con,1,z,Wed Sep 25 2024 08:42:05 GMT-0500 (Central Daylight Time),365884.799999997,friend,1000,I,z,z,None,663,463.0,200.0,27,1,2195.699999999255,363689.09999999776,8004,friend,AF,C,356352,356352,354622,355635,354622,356818,356152,356152,356818,79
77,test,1,inc,1,m,Wed Sep 25 2024 08:42:05 GMT-0500 (Central Daylight Time),368150.69999999925,hate,1100,I,m,m,None,619,420.0,199.0,88,1,2262.199999999255,365888.5,8004,bell,AF,C,358651,358651,356822,357934,356822,359084,358451,358451,359084,80
78,test,1,inc,1,z,Wed Sep 25 2024 08:42:05 GMT-0500 (Central Daylight Time),370428.59999999776,film,1100,I,z,z,None,644,445.0,199.0,16,1,2274.099999997765,368154.5,8004,kind,AF,C,360917,360917,359088,360200,359088,361362,360717,360717,361362,81
79,test,1,inc,1,m,Wed Sep 25 2024 08:42:05 GMT-0500 (Central Daylight Time),372682.5,temper,1000,I,m,m,None,700,500.0,200.0,119,1,2250.0,370432.5,8004,remote,AF,C,363099,363099,361366,362383,361366,363616,362899,362899,363615,82
80,test,1,inc,1,m,Wed Sep 25 2024 08:42:05 GMT-0500 (Central Daylight Time),375481.59999999776,love,1000,I,m,m,None,1250,1051.0,199.0,79,1,2795.0,372686.59999999776,8004,rock,AF,C,365348,365348,363620,364632,363620,366415,365149,365149,366415,83
81,test,1,con,1,z,Wed Sep 25 2024 08:42:05 GMT-0500 (Central Daylight Time),377497.799999997,brutal,1100,I,z,z,None,374,159.0,215.0,36,1,2012.3999999985099,375485.3999999985,8004,brutal,AF,C,368264,368264,366418,367531,366419,368431,368049,368049,368431,84
82,test,1,con,1,z,Wed Sep 25 2024 08:42:05 GMT-0500 (Central Daylight Time),379230.5,love,900,I,z,z,None,286,87.0,199.0,18,1,1728.800000000745,377501.69999999925,8004,love,AF,C,370063,370064,368435,369347,368435,370164,369864,369864,370163,85
82,test,1,inc,0,z,Wed Sep 25 2024 08:42:05 GMT-0500 (Central Daylight Time),381129.59999999776,rock,900,I,m,m,None,457,258.0,199.0,46,1,1895.5,379234.09999999776,8004,hate,AF,C,371797,371797,370167,371080,370167,372063,371597,371597,372063,86
83,test,1,inc,1,m,Wed Sep 25 2024 08:42:05 GMT-0500 (Central Daylight Time),383262.5,love,1000,I,m,m,None,587,387.0,200.0,87,1,2129.300000000745,381133.19999999925,8004,bell,AF,C,373796,373796,372066,373080,372066,374196,373596,373596,374196,87
84,test,1,con,1,m,Wed Sep 25 2024 08:42:05 GMT-0500 (Central Daylight Time),385179.69999999925,step,900,I,m,m,None,481,282.0,199.0,66,1,1913.300000000745,383266.3999999985,8004,step,AF,C,375829,375829,374199,375112,374200,376113,375629,375629,376113,88
85,test,1,inc,1,m,Wed Sep 25 2024 08:42:05 GMT-0500 (Central Daylight Time),387378.09999999776,hate,1100,I,m,m,None,557,358.0,199.0,80,1,2194.800000000745,385183.299999997,8004,rock,AF,C,377945,377945,376116,377229,376117,378311,377745,377745,378311,89
86,test,1,con,1,z,Wed Sep 25 2024 08:42:05 GMT-0500 (Central Daylight Time),389327.19999999925,kind,800,I,z,z,None,603,403.0,200.0,9,1,1945.199999999255,387382.0,8004,kind,AF,C,379844,379844,378315,379128,378315,380260,379644,379644,380260,90
87,test,1,con,1,m,Wed Sep 25 2024 08:42:05 GMT-0500 (Central Daylight Time),391311.09999999776,remote,1000,I,m,m,None,445,246.0,199.0,115,1,1980.300000000745,389330.799999997,8004,remote,AF,C,381993,381993,380264,381277,380264,382244,381794,381794,382244,91
88,test,1,con,1,z,Wed Sep 25 2024 08:42:05 GMT-0500 (Central Daylight Time),393659.799999997,rage,1000,I,z,z,None,807,607.0,200.0,51,1,2344.699999999255,391315.09999999776,8004,rage,AF,C,383976,383976,382248,383260,382248,384593,383776,383776,384593,92
89,test,1,inc,1,z,Wed Sep 25 2024 08:42:05 GMT-0500 (Central Daylight Time),395708.59999999776,rock,900,I,z,z,None,606,406.0,200.0,14,1,2045.199999999255,393663.3999999985,8004,kind,AF,C,386225,386225,384596,385509,384597,386642,386025,386025,386642,93
89,test,1,con,0,z,Wed Sep 25 2024 08:42:05 GMT-0500 (Central Daylight Time),397608.0,elated,900,I,m,m,None,460,261.0,199.0,2,1,1895.7000000029802,395712.299999997,8004,elated,AF,C,388275,388275,386645,387558,386645,388541,388075,388075,388541,94
90,test,1,con,1,m,Wed Sep 25 2024 08:42:05 GMT-0500 (Central Daylight Time),399657.5,rock,900,I,m,m,None,601,401.0,200.0,74,1,2045.9000000022352,397611.59999999776,8004,rock,AF,C,390174,390174,388545,389458,388545,390591,389974,389974,390590,95
91,test,1,con,1,m,Wed Sep 25 2024 08:42:05 GMT-0500 (Central Daylight Time),401557.09999999776,rock,800,I,m,m,None,555,356.0,199.0,73,1,1896.0,399661.09999999776,8004,rock,AF,C,392123,392123,390594,391407,390594,392490,391924,391924,392490,96
92,test,1,con,1,z,Wed Sep 25 2024 08:42:05 GMT-0500 (Central Daylight Time),403689.5,hate,1000,I,z,z,None,592,392.0,200.0,43,1,2128.800000000745,401560.69999999925,8004,hate,AF,C,394223,394223,392494,393506,392494,394623,394023,394023,394622,97
93,test,1,inc,1,z,Wed Sep 25 2024 08:42:05 GMT-0500 (Central Daylight Time),405872.19999999925,remote,1000,I,z,z,None,634,435.0,199.0,39,1,2179.0,403693.19999999925,8004,brutal,AF,C,396356,396356,394626,395639,394626,396805,396156,396156,396805,98
94,test,1,con,1,z,Wed Sep 25 2024 08:42:05 GMT-0500 (Central Daylight Time),408221.3999999985,rage,1100,I,z,z,None,713,513.0,200.0,52,1,2345.60000000149,405875.799999997,8004,rage,AF,C,398638,398638,396809,397922,396809,399154,398438,398438,399154,99
95,test,1,inc,1,m,Wed Sep 25 2024 08:42:05 GMT-0500 (Central Daylight Time),410437.299999997,love,1000,I,m,m,None,679,479.0,200.0,71,1,2212.2999999970198,408225.0,8004,step,AF,C,400888,400888,399158,400171,399158,401370,400687,400687,401370,100
96,test,1,con,1,z,Wed Sep 25 2024 08:42:05 GMT-0500 (Central Daylight Time),412503.299999997,kind,900,I,z,z,None,626,411.0,215.0,10,1,2062.199999999255,410441.09999999776,8004,kind,AF,C,403020,403020,401374,402287,401374,403436,402805,402805,403436,101
97,test,1,con,1,m,Wed Sep 25 2024 08:42:05 GMT-0500 (Central Daylight Time),414969.299999997,napkin,1100,I,m,m,None,817,616.0,201.0,108,1,2462.2999999970198,412507.0,8004,napkin,AF,C,405271,405271,403440,404553,403440,405902,405069,405069,405902,102
98,test,1,con,1,z,Wed Sep 25 2024 08:42:05 GMT-0500 (Central Daylight Time),417563.799999997,elated,1000,I,z,z,None,1045,845.0,200.0,3,1,2590.599999997765,414973.19999999925,8004,elated,AF,C,407635,407635,405906,406919,405906,408497,407435,407435,408497,103
99,test,1,inc,1,z,Wed Sep 25 2024 08:42:05 GMT-0500 (Central Daylight Time),419584.299999997,jacket,800,I,z,z,None,675,476.0,199.0,5,1,2014.0,417570.299999997,8004,elated,AF,C,410035,410035,408503,409319,408504,410517,409836,409836,410517,104
100,test,1,inc,1,z,Wed Sep 25 2024 08:42:05 GMT-0500 (Central Daylight Time),421933.69999999925,film,1100,I,z,z,None,711,512.0,199.0,56,1,2345.699999999255,419588.0,8004,rage,AF,C,412351,412351,410521,411634,410521,412867,412151,412151,412867,105
101,test,1,inc,1,m,Wed Sep 25 2024 08:42:05 GMT-0500 (Central Daylight Time),423950.0,elated,800,I,m,m,None,679,479.0,200.0,117,1,2012.800000000745,421937.19999999925,8004,remote,AF,C,414400,414400,412870,413683,412870,414883,414200,414200,414883,106
101,test,1,con,0,z,Wed Sep 25 2024 08:42:05 GMT-0500 (Central Daylight Time),426798.8999999985,hate,1100,I,m,m,None,1210,1011.0,199.0,44,1,2845.300000000745,423953.59999999776,8004,hate,AF,C,416716,416716,414887,415999,414887,417732,416516,416516,417732,107
102,test,1,con,1,m,Wed Sep 25 2024 08:42:05 GMT-0500 (Central Daylight Time),428482.5,window,800,I,m,m,None,350,150.0,200.0,121,1,1679.4000000022352,426803.09999999776,8004,window,AF,C,419265,419265,417736,418549,417736,419416,419065,419065,419416,108
103,test,1,con,1,z,Wed Sep 25 2024 08:42:05 GMT-0500 (Central Daylight Time),430432.3999999985,kind,1000,I,z,z,None,411,211.0,200.0,11,1,1946.199999999255,428486.19999999925,8004,kind,AF,C,421148,421148,419419,420431,419419,421365,420948,420948,421365,109
104,test,1,inc,1,m,Wed Sep 25 2024 08:42:05 GMT-0500 (Central Daylight Time),432530.3999999985,friend,1100,I,m,m,None,450,250.0,200.0,112,1,2094.0,430436.3999999985,8004,napkin,AF,C,423197,423197,421369,422481,421370,423464,422997,422997,423463,110
105,test,1,inc,1,m,Wed Sep 25 2024 08:42:05 GMT-0500 (Central Daylight Time),434513.299999997,rage,800,I,m,m,None,633,434.0,199.0,69,1,1978.8999999985099,432534.3999999985,8004,step,AF,C,424997,424997,423467,424280,423468,425446,424797,424797,425446,111
106,test,1,con,1,z,Wed Sep 25 2024 08:42:05 GMT-0500 (Central Daylight Time),436629.19999999925,temper,900,I,z,z,None,680,480.0,200.0,58,1,2112.300000000745,434516.8999999985,8004,temper,AF,C,427079,427079,425450,426363,425450,427562,426879,426879,427562,112
107,test,1,inc,1,z,Wed Sep 25 2024 08:42:05 GMT-0500 (Central Daylight Time),438645.19999999925,bell,1000,I,z,z,None,480,280.0,200.0,15,1,2012.5,436632.69999999925,8004,kind,AF,C,429295,429295,427566,428579,427566,429578,429095,429095,429578,113
108,test,1,inc,1,z,Wed Sep 25 2024 08:42:05 GMT-0500 (Central Daylight Time),440694.59999999776,bell,1000,I,z,z,None,504,304.0,200.0,23,1,2045.699999999255,438648.8999999985,8004,love,AF,C,431311,431311,429582,430595,429582,431628,431111,431111,431628,114
109,test,1,con,1,m,Wed Sep 25 2024 08:42:05 GMT-0500 (Central Daylight Time),442510.799999997,remote,800,I,m,m,None,477,278.0,199.0,113,1,1812.5,440698.299999997,8004,remote,AF,C,433161,433161,431631,432444,431632,433444,432961,432961,433444,115
110,test,1,con,1,m,Wed Sep 25 2024 08:42:05 GMT-0500 (Central Daylight Time),444626.59999999776,remote,1100,I,m,m,None,473,274.0,199.0,116,1,2112.39999999851,442514.19999999925,8004,remote,AF,C,435277,435277,433447,434560,433448,435560,435077,435077,435560,116
111,test,1,inc,1,z,Wed Sep 25 2024 08:42:05 GMT-0500 (Central Daylight Time),446675.8999999985,rock,900,I,z,z,None,613,414.0,199.0,54,1,2045.3999999985099,444630.5,8004,rage,AF,C,437193,437193,435564,436476,435564,437609,436993,436993,437609,117
112,test,1,inc,1,m,Wed Sep 25 2024 08:42:05 GMT-0500 (Central Daylight Time),448808.69999999925,love,1000,I,m,m,None,593,393.0,200.0,95,1,2129.0,446679.69999999925,8004,film,AF,C,439342,439342,437613,438627,437613,439742,439142,439142,439742,118
113,test,1,con,1,m,Wed Sep 25 2024 08:42:05 GMT-0500 (Central Daylight Time),451207.8999999985,bell,1000,I,m,m,None,852,652.0,200.0,83,1,2395.60000000149,448812.299999997,8004,bell,AF,C,441475,441475,439745,440758,439746,442141,441275,441275,442141,119
114,test,1,con,1,m,Wed Sep 25 2024 08:42:05 GMT-0500 (Central Daylight Time),453307.299999997,film,1100,I,m,m,None,464,265.0,199.0,92,1,2095.699999999255,451211.59999999776,8004,film,AF,C,443974,443974,442145,443258,442145,444240,443775,443775,444240,120
115,test,1,con,1,z,Wed Sep 25 2024 08:42:05 GMT-0500 (Central Daylight Time),455356.69999999925,temper,1100,I,z,z,None,412,197.0,215.0,60,1,2045.300000000745,453311.3999999985,8004,temper,AF,C,446090,446090,444244,445357,444245,446290,445875,445875,446290,121
116,test,1,inc,1,z,Wed Sep 25 2024 08:42:05 GMT-0500 (Central Daylight Time),457122.59999999776,step,800,I,z,z,None,423,224.0,199.0,21,1,1762.199999999255,455360.3999999985,8004,love,AF,C,447823,447823,446293,447107,446294,448056,447623,447623,448056,122
117,test,1,con,1,z,Wed Sep 25 2024 08:42:05 GMT-0500 (Central Daylight Time),459055.59999999776,love,1000,I,z,z,None,385,186.0,199.0,19,1,1928.8999999985099,457126.69999999925,8004,love,AF,C,449789,449789,448060,449072,448060,449989,449589,449589,449989,123
118,test,1,inc,1,m,Wed Sep 25 2024 08:42:05 GMT-0500 (Central Daylight Time),461138.19999999925,temper,1000,I,m,m,None,548,348.0,200.0,111,1,2079.0,459059.19999999925,8004,napkin,AF,C,451723,451723,449992,451006,449993,452071,451522,451522,452071,124
119,test,1,inc,1,m,Wed Sep 25 2024 08:42:05 GMT-0500 (Central Daylight Time),463620.69999999925,hate,1100,I,m,m,None,847,647.0,200.0,72,1,2478.900000002235,461141.799999997,8004,step,AF,C,453904,453904,452075,453188,452075,454554,453704,453704,454554,125
120,test,1,con,1,z,Wed Sep 25 2024 08:42:05 GMT-0500 (Central Daylight Time),466036.59999999776,rage,900,I,z,z,None,879,680.0,199.0,50,1,2412.300000000745,463624.299999997,8004,rage,AF,C,456287,456287,454557,455582,454557,456970,456087,456087,456970,126
120,test,1,con,0,m,Wed Sep 25 2024 08:42:05 GMT-0500 (Central Daylight Time),468236.09999999776,rock,1100,I,z,z,None,563,364.0,199.0,76,1,2195.800000000745,466040.299999997,8004,rock,AF,C,458803,458803,456973,458086,456974,459169,458603,458603,459169,127
120,test,1,inc,0,m,Wed Sep 25 2024 08:42:05 GMT-0500 (Central Daylight Time),470185.19999999925,rage,800,I,z,z,None,609,409.0,200.0,77,1,1945.5,468239.69999999925,8004,rock,AF,C,460702,460702,459173,459986,459173,461118,460502,460502,461118,128
