acc_sum,block,block_c,condition,correct,correct_response,datetime,endtime,flanker,jitter,project,response,response_test_buffer_response,response_test_target_response,response_time,response_time_test_buffer_response,response_time_test_target_response,row_sel,session_number,start_end,starttime,subject_id,target,task,task_vers,time_test_buffer,time_test_buffer_response,time_test_constants,time_test_flanker,time_test_jitter,time_test_logger,time_test_target,time_test_target_response,time_test_variables,trial
1,prac,1,inc,1,z,Wed Sep 04 2024 14:13:53 GMT-0500 (Central Daylight Time),90683.09999990463,film,900,O,z,,,1375,,,14,1,3575.0999999046326,87108.0,7004,hate,AF,A,,,,,,,,,,1
2,prac,1,inc,1,z,Wed Sep 04 2024 14:13:53 GMT-0500 (Central Daylight Time),93956.39999997616,napkin,1100,O,z,,,849,,,12,1,3261.8000000715256,90694.59999990463,7004,friend,AF,A,,,,,,,,,,2
3,prac,1,con,1,m,Wed Sep 04 2024 14:13:53 GMT-0500 (Central Daylight Time),96945.39999997616,remote,1000,O,m,,,693,,,7,1,2981.899999976158,93963.5,7004,remote,AF,A,,,,,,,,,,3
4,prac,1,con,1,z,Wed Sep 04 2024 14:13:53 GMT-0500 (Central Daylight Time),99667.29999995232,love,1000,O,z,,,438,,,11,1,2714.5,96952.79999995232,7004,love,AF,A,,,,,,,,,,4
5,prac,1,con,1,z,Wed Sep 04 2024 14:13:53 GMT-0500 (Central Daylight Time),102189.59999990463,elated,800,O,z,,,430,,,9,1,2510.6999999284744,99678.89999997616,7004,elated,AF,A,,,,,,,,,,5
6,prac,1,con,1,m,Wed Sep 04 2024 14:13:53 GMT-0500 (Central Daylight Time),104743.79999995232,jacket,800,O,m,,,437,,,5,1,2545.2999999523163,102198.5,7004,jacket,AF,A,,,,,,,,,,6
7,prac,1,con,1,z,Wed Sep 04 2024 14:13:53 GMT-0500 (Central Daylight Time),107382.29999995232,brutal,800,O,z,,,546,,,13,1,2625.2000000476837,104757.09999990463,7004,brutal,AF,A,,,,,,,,,,7
8,prac,1,con,1,z,Wed Sep 04 2024 14:13:53 GMT-0500 (Central Daylight Time),110204.29999995232,rage,1000,O,z,,,507,,,15,1,2814.100000023842,107390.19999992847,7004,rage,AF,A,,,,,,,,,,8
9,prac,1,con,1,m,Wed Sep 04 2024 14:13:53 GMT-0500 (Central Daylight Time),112859.59999990463,step,800,O,m,,,566,,,1,1,2646.6999999284744,110212.89999997616,7004,step,AF,A,,,,,,,,,,9
10,prac,1,inc,1,m,Wed Sep 04 2024 14:13:53 GMT-0500 (Central Daylight Time),115966.19999992847,brutal,1100,O,m,,,690,,,8,1,3096.399999976158,112869.79999995232,7004,window,AF,A,,,,,,,,,,10
11,prac,1,inc,1,z,Wed Sep 04 2024 14:13:53 GMT-0500 (Central Daylight Time),118971.59999990463,window,1100,O,z,,,606,,,16,1,3001.7999999523163,115969.79999995232,7004,temper,AF,A,,,,,,,,,,11
12,prac,1,inc,1,z,Wed Sep 04 2024 14:13:53 GMT-0500 (Central Daylight Time),121877.79999995232,rock,900,O,z,,,699,,,10,1,2898.2000000476837,118979.59999990463,7004,kind,AF,A,,,,,,,,,,12
13,prac,1,con,1,m,Wed Sep 04 2024 14:13:53 GMT-0500 (Central Daylight Time),124732.59999990463,bell,1000,O,m,,,547,,,3,1,2846.6999999284744,121885.89999997616,7004,bell,AF,A,,,,,,,,,,13
14,prac,1,inc,1,m,Wed Sep 04 2024 14:13:53 GMT-0500 (Central Daylight Time),127805.59999990463,hate,1100,O,m,,,672,,,4,1,3064.5,124741.09999990463,7004,film,AF,A,,,,,,,,,,14
15,prac,1,inc,1,m,Wed Sep 04 2024 14:13:53 GMT-0500 (Central Daylight Time),130627.29999995232,kind,900,O,m,,,608,,,2,1,2813.7000000476837,127813.59999990463,7004,rock,AF,A,,,,,,,,,,15
16,prac,1,inc,1,m,Wed Sep 04 2024 14:13:53 GMT-0500 (Central Daylight Time),133349.69999992847,elated,900,O,m,,,531,,,6,1,2711.2999999523163,130638.39999997616,7004,napkin,AF,A,,,,,,,,,,16
1,test,1,con,1,z,Wed Sep 04 2024 14:13:53 GMT-0500 (Central Daylight Time),147676.89999997616,hate,1100,O,z,z,None,488,289.0,199.0,44,1,2129.7000000476837,145547.19999992847,7004,hate,AF,A,145453,145453,143623,144735,143623,145753,145253,145253,145753,1
2,test,1,con,1,z,Wed Sep 04 2024 14:13:53 GMT-0500 (Central Daylight Time),149581.89999997616,brutal,900,O,z,z,None,464,264.0,200.0,34,1,1894.2000000476837,147687.69999992847,7004,brutal,AF,A,147390,147391,145764,146673,145764,147658,147190,147190,147658,2
3,test,1,inc,1,m,Wed Sep 04 2024 14:13:53 GMT-0500 (Central Daylight Time),151668.39999997616,love,1000,O,m,m,None,548,349.0,199.0,87,1,2079.3000000715256,149589.09999990463,7004,bell,AF,A,149394,149394,147665,148676,147665,149744,149194,149194,149744,3
4,test,1,con,1,m,Wed Sep 04 2024 14:13:53 GMT-0500 (Central Daylight Time),153688.89999997616,step,1000,O,m,m,None,486,286.0,200.0,67,1,2013.8999999761581,151675.0,7004,step,AF,A,151465,151465,149751,150763,149751,151765,151264,151264,151765,4
5,test,1,con,1,z,Wed Sep 04 2024 14:13:53 GMT-0500 (Central Daylight Time),155809.39999997616,friend,1100,O,z,z,None,486,285.0,201.0,28,1,2109.600000023842,153699.79999995232,7004,friend,AF,A,153586,153586,151776,152884,151776,153886,153385,153385,153885,5
6,test,1,inc,1,m,Wed Sep 04 2024 14:13:53 GMT-0500 (Central Daylight Time),157813.19999992847,brutal,900,O,m,m,None,563,364.0,199.0,110,1,1996.0,155817.19999992847,7004,napkin,AF,A,155522,155523,153893,154805,153893,155889,155323,155323,155889,6
7,test,1,inc,1,z,Wed Sep 04 2024 14:13:53 GMT-0500 (Central Daylight Time),159700.59999990463,jacket,800,O,z,z,None,556,356.0,200.0,29,1,1879.8999999761581,157820.69999992847,7004,friend,AF,A,157411,157411,155897,156708,155897,157777,157210,157210,157777,7
8,test,1,inc,1,z,Wed Sep 04 2024 14:13:53 GMT-0500 (Central Daylight Time),161854.39999997616,window,1100,O,z,z,None,511,312.0,199.0,32,1,2144.0,159710.39999997616,7004,friend,AF,A,159614,159614,157786,158897,157787,159930,159414,159414,159930,8
9,test,1,con,1,m,Wed Sep 04 2024 14:13:53 GMT-0500 (Central Daylight Time),163641.29999995232,bell,800,O,m,m,None,435,235.0,200.0,81,1,1784.2000000476837,161857.09999990463,7004,bell,AF,A,161468,161468,159933,160750,159933,161717,161267,161267,161717,9
10,test,1,inc,1,m,Wed Sep 04 2024 14:13:53 GMT-0500 (Central Daylight Time),165595.39999997616,elated,800,O,m,m,None,608,408.0,200.0,117,1,1946.1000000238419,163649.29999995232,7004,remote,AF,A,163255,163255,161725,162537,161726,163671,163054,163054,163671,10
11,test,1,con,1,z,Wed Sep 04 2024 14:13:53 GMT-0500 (Central Daylight Time),167533.29999995232,brutal,800,O,z,z,None,607,407.0,200.0,33,1,1930.5,165602.79999995232,7004,brutal,AF,A,165192,165192,163679,164490,163679,165609,164991,164991,165609,11
12,test,1,inc,1,z,Wed Sep 04 2024 14:13:53 GMT-0500 (Central Daylight Time),169653.59999990463,rock,900,O,z,z,None,673,473.0,200.0,22,1,2108.5,167545.09999990463,7004,love,AF,A,167246,167246,165621,166528,165621,167730,167045,167045,167729,12
13,test,1,inc,1,z,Wed Sep 04 2024 14:13:53 GMT-0500 (Central Daylight Time),172007.79999995232,film,1100,O,z,z,None,703,504.0,199.0,16,1,2345.399999976158,169662.39999997616,7004,kind,AF,A,169566,169567,167738,168849,167739,170084,169367,169367,170084,13
14,test,1,inc,1,m,Wed Sep 04 2024 14:13:53 GMT-0500 (Central Daylight Time),174078.59999990463,temper,1000,O,m,m,None,537,338.0,199.0,111,1,2063.399999976158,172015.19999992847,7004,napkin,AF,A,171804,171804,170091,171103,170091,172155,171604,171604,172155,14
15,test,1,inc,1,z,Wed Sep 04 2024 14:13:53 GMT-0500 (Central Daylight Time),176131.69999992847,napkin,900,O,z,z,None,613,414.0,199.0,30,1,2043.6999999284744,174088.0,7004,friend,AF,A,173792,173792,172164,173074,172164,174208,173592,173592,174208,15
16,test,1,con,1,m,Wed Sep 04 2024 14:13:53 GMT-0500 (Central Daylight Time),178303.59999990463,remote,1000,O,m,m,None,638,438.0,200.0,115,1,2164.2999999523163,176139.29999995232,7004,remote,AF,A,175929,175929,174215,175227,174216,176380,175729,175729,176380,16
17,test,1,con,1,m,Wed Sep 04 2024 14:13:53 GMT-0500 (Central Daylight Time),180207.09999990463,remote,800,O,m,m,None,553,354.0,199.0,113,1,1892.8999999761581,178314.19999992847,7004,remote,AF,A,177916,177917,176390,177199,176391,178283,177717,177717,178283,17
18,test,1,con,1,z,Wed Sep 04 2024 14:13:53 GMT-0500 (Central Daylight Time),182361.09999990463,rage,1100,O,z,z,None,517,318.0,199.0,52,1,2145.2999999523163,180215.79999995232,7004,rage,AF,A,180104,180104,178292,179402,178292,180437,179904,179904,180437,18
19,test,1,con,1,z,Wed Sep 04 2024 14:13:53 GMT-0500 (Central Daylight Time),184465.79999995232,brutal,1000,O,z,z,None,567,351.0,216.0,35,1,2096.7999999523163,182369.0,7004,brutal,AF,A,182191,182191,180445,181457,180445,182542,181975,181975,182542,19
20,test,1,con,1,z,Wed Sep 04 2024 14:13:53 GMT-0500 (Central Daylight Time),186620.79999995232,kind,1000,O,z,z,None,626,425.0,201.0,11,1,2151.2000000476837,184469.59999990463,7004,kind,AF,A,184262,184262,182546,183560,182546,184697,184061,184061,184697,20
21,test,1,inc,1,z,Wed Sep 04 2024 14:13:53 GMT-0500 (Central Daylight Time),188841.0,bell,1000,O,z,z,None,686,487.0,199.0,55,1,2209.4000000953674,186631.59999990463,7004,rage,AF,A,186416,186416,184708,185715,184708,186917,186216,186216,186917,21
22,test,1,con,1,m,Wed Sep 04 2024 14:13:53 GMT-0500 (Central Daylight Time),190844.19999992847,napkin,800,O,m,m,None,673,474.0,199.0,105,1,1990.1000000238419,188854.09999990463,7004,napkin,AF,A,188437,188437,186930,187735,186930,188920,188237,188237,188920,22
23,test,1,con,1,z,Wed Sep 04 2024 14:13:53 GMT-0500 (Central Daylight Time),192931.19999992847,temper,900,O,z,z,None,648,448.0,200.0,58,1,2079.7999999523163,190851.39999997616,7004,temper,AF,A,190558,190558,188927,189840,188928,191007,190357,190357,191007,23
24,test,1,inc,1,z,Wed Sep 04 2024 14:13:53 GMT-0500 (Central Daylight Time),195019.5,bell,1000,O,z,z,None,556,340.0,216.0,23,1,2082.3000000715256,192937.19999992847,7004,love,AF,A,192745,192746,191013,192027,191014,193096,192529,192529,193095,24
25,test,1,inc,1,z,Wed Sep 04 2024 14:13:53 GMT-0500 (Central Daylight Time),197123.39999997616,napkin,900,O,z,z,None,682,482.0,200.0,6,1,2095.7000000476837,195027.69999992847,7004,elated,AF,A,194716,194716,193104,194014,193104,195199,194515,194515,195199,25
26,test,1,con,1,m,Wed Sep 04 2024 14:13:53 GMT-0500 (Central Daylight Time),199277.79999995232,step,1100,O,m,m,None,530,331.0,199.0,68,1,2146.600000023842,197131.19999992847,7004,step,AF,A,197020,197020,195207,196318,195208,197354,196820,196820,197354,26
27,test,1,con,1,z,Wed Sep 04 2024 14:13:53 GMT-0500 (Central Daylight Time),201114.79999995232,friend,800,O,z,z,None,492,293.0,199.0,25,1,1829.6000000238419,199285.19999992847,7004,friend,AF,A,198890,198890,197361,198173,197361,199191,198690,198690,199191,27
28,test,1,con,1,z,Wed Sep 04 2024 14:13:53 GMT-0500 (Central Daylight Time),203035.0,hate,900,O,z,z,None,483,284.0,199.0,42,1,1912.3000000715256,201122.69999992847,7004,hate,AF,A,200811,200811,199199,200109,199199,201111,200611,200611,201111,28
29,test,1,inc,1,m,Wed Sep 04 2024 14:13:53 GMT-0500 (Central Daylight Time),205239.29999995232,hate,1100,O,m,m,None,553,353.0,200.0,96,1,2196.100000023842,203043.19999992847,7004,film,AF,A,202948,202949,201119,202230,201119,203315,202748,202748,203315,29
30,test,1,inc,1,z,Wed Sep 04 2024 14:13:53 GMT-0500 (Central Daylight Time),207559.79999995232,remote,1000,O,z,z,None,793,578.0,215.0,63,1,2317.399999976158,205242.39999997616,7004,temper,AF,A,205052,205053,203318,204333,203319,205636,204837,204837,205636,30
31,test,1,con,1,m,Wed Sep 04 2024 14:13:53 GMT-0500 (Central Daylight Time),209630.79999995232,remote,900,O,m,m,None,637,422.0,215.0,114,1,2063.100000023842,207567.69999992847,7004,remote,AF,A,207273,207273,205644,206555,205644,207707,207057,207057,207707,31
32,test,1,inc,1,m,Wed Sep 04 2024 14:13:53 GMT-0500 (Central Daylight Time),211735.39999997616,love,1000,O,m,m,None,563,361.0,202.0,95,1,2097.7000000476837,209637.69999992847,7004,film,AF,A,209445,209445,207714,208726,207714,209812,209243,209243,209811,32
33,test,1,con,1,z,Wed Sep 04 2024 14:13:53 GMT-0500 (Central Daylight Time),213956.89999997616,elated,1100,O,z,z,None,598,399.0,199.0,4,1,2213.2000000476837,211743.69999992847,7004,elated,AF,A,211632,211632,209820,210930,209820,212033,211432,211432,212033,33
34,test,1,inc,1,z,Wed Sep 04 2024 14:13:53 GMT-0500 (Central Daylight Time),216327.59999990463,film,1100,O,z,z,None,746,546.0,200.0,48,1,2362.899999976158,213964.69999992847,7004,hate,AF,A,213853,213853,212041,213151,212041,214404,213652,213652,214404,34
35,test,1,con,1,z,Wed Sep 04 2024 14:13:53 GMT-0500 (Central Daylight Time),218431.09999990463,hate,1000,O,z,z,None,553,354.0,199.0,43,1,2094.399999976158,216336.69999992847,7004,hate,AF,A,216141,216141,214413,215423,214413,216507,215941,215941,216507,35
36,test,1,con,1,m,Wed Sep 04 2024 14:13:53 GMT-0500 (Central Daylight Time),220351.5,step,800,O,m,m,None,570,370.0,200.0,65,1,1908.0,218443.5,7004,step,AF,A,218045,218045,216520,217326,216520,218428,217844,217844,218427,36
37,test,1,inc,1,m,Wed Sep 04 2024 14:13:53 GMT-0500 (Central Daylight Time),222355.5,rage,800,O,m,m,None,682,482.0,200.0,77,1,1995.1000000238419,220360.39999997616,7004,rock,AF,A,219948,219948,218436,219247,218437,220432,219748,219748,220431,37
38,test,1,con,1,m,Wed Sep 04 2024 14:13:53 GMT-0500 (Central Daylight Time),224309.19999992847,jacket,1000,O,m,m,None,414,213.0,201.0,99,1,1944.6000000238419,222364.59999990463,7004,jacket,AF,A,222169,222169,220441,221451,220441,222385,221968,221968,222385,38
39,test,1,inc,1,z,Wed Sep 04 2024 14:13:53 GMT-0500 (Central Daylight Time),226396.69999992847,napkin,900,O,z,z,None,665,465.0,200.0,38,1,2082.600000023842,224314.09999990463,7004,brutal,AF,A,224006,224006,222390,223304,222390,224473,223805,223805,224473,39
40,test,1,con,1,m,Wed Sep 04 2024 14:13:53 GMT-0500 (Central Daylight Time),228451.5,film,800,O,m,m,None,700,501.0,199.0,89,1,2046.3000000715256,226405.19999992847,7004,film,AF,A,226010,226010,224481,225292,224481,226528,225809,225810,226528,40
41,test,1,con,1,m,Wed Sep 04 2024 14:13:53 GMT-0500 (Central Daylight Time),230722.0,napkin,1100,O,m,m,None,635,435.0,200.0,108,1,2262.600000023842,228459.39999997616,7004,napkin,AF,A,228348,228348,226535,227646,226536,228798,228147,228147,228798,41
42,test,1,con,1,z,Wed Sep 04 2024 14:13:53 GMT-0500 (Central Daylight Time),232726.09999990463,love,900,O,z,z,None,571,356.0,215.0,18,1,1991.5999999046326,230734.5,7004,love,AF,A,230435,230435,228811,229717,228811,230802,230219,230219,230802,42
43,test,1,inc,1,m,Wed Sep 04 2024 14:13:53 GMT-0500 (Central Daylight Time),234713.0,kind,900,O,m,m,None,544,344.0,200.0,94,1,1976.7000000476837,232736.29999995232,7004,film,AF,A,232439,232439,230812,231722,230813,232789,232238,232238,232789,43
44,test,1,con,1,m,Wed Sep 04 2024 14:13:53 GMT-0500 (Central Daylight Time),236583.29999995232,window,800,O,m,m,None,520,320.0,200.0,121,1,1860.3999999761581,234722.89999997616,7004,window,AF,A,234327,234327,232799,233608,232800,234659,234126,234126,234659,44
45,test,1,inc,1,z,Wed Sep 04 2024 14:13:53 GMT-0500 (Central Daylight Time),238904.59999990463,window,1100,O,z,z,None,686,487.0,199.0,64,1,2311.399999976158,236593.19999992847,7004,temper,AF,A,236480,236480,234669,235779,234669,236981,236280,236280,236981,45
46,test,1,con,1,z,Wed Sep 04 2024 14:13:53 GMT-0500 (Central Daylight Time),241259.39999997616,rage,1000,O,z,z,None,818,619.0,199.0,51,1,2346.0,238913.39999997616,7004,rage,AF,A,238701,238701,236989,237999,236990,239335,238501,238501,239335,46
47,test,1,inc,1,m,Wed Sep 04 2024 14:13:53 GMT-0500 (Central Daylight Time),243413.5,friend,1100,O,m,m,None,531,331.0,200.0,104,1,2147.100000023842,241266.39999997616,7004,jacket,AF,A,241156,241156,239342,240454,239343,241490,240955,240955,241489,47
48,test,1,con,1,z,Wed Sep 04 2024 14:13:53 GMT-0500 (Central Daylight Time),245767.79999995232,brutal,1100,O,z,z,None,721,521.0,200.0,36,1,2344.899999976158,243422.89999997616,7004,brutal,AF,A,243311,243311,241499,242608,241499,243844,243110,243110,243844,48
49,test,1,con,1,m,Wed Sep 04 2024 14:13:53 GMT-0500 (Central Daylight Time),247755.0,film,900,O,m,m,None,550,351.0,199.0,90,1,1975.9000000953674,245779.09999990463,7004,film,AF,A,245464,245464,243855,244763,243856,245831,245265,245265,245831,49
50,test,1,con,1,m,Wed Sep 04 2024 14:13:53 GMT-0500 (Central Daylight Time),249826.09999990463,rock,900,O,m,m,None,635,435.0,200.0,74,1,2063.5,247762.59999990463,7004,rock,AF,A,247452,247452,245839,246750,245839,247902,247251,247251,247902,50
51,test,1,inc,1,z,Wed Sep 04 2024 14:13:53 GMT-0500 (Central Daylight Time),251897.59999990463,jacket,800,O,z,z,None,736,537.0,199.0,61,1,2061.2999999523163,249836.29999995232,7004,temper,AF,A,249423,249423,247912,248720,247913,249974,249223,249223,249974,51
52,test,1,inc,1,z,Wed Sep 04 2024 14:13:53 GMT-0500 (Central Daylight Time),254150.89999997616,film,1100,O,z,z,None,621,421.0,200.0,24,1,2245.100000023842,251905.79999995232,7004,love,AF,A,251794,251794,249982,251092,249982,252227,251593,251593,252227,52
53,test,1,con,1,m,Wed Sep 04 2024 14:13:53 GMT-0500 (Central Daylight Time),256021.39999997616,step,900,O,m,m,None,431,232.0,199.0,66,1,1862.7000000476837,254158.69999992847,7004,step,AF,A,253863,253863,252235,253146,252235,254097,253664,253664,254097,53
54,test,1,con,1,m,Wed Sep 04 2024 14:13:53 GMT-0500 (Central Daylight Time),257891.89999997616,rock,800,O,m,m,None,548,349.0,199.0,73,1,1864.1000000238419,256027.79999995232,7004,rock,AF,A,255618,255618,254104,254916,254104,255968,255418,255418,255968,54
55,test,1,con,1,z,Wed Sep 04 2024 14:13:53 GMT-0500 (Central Daylight Time),260162.59999990463,love,1100,O,z,z,None,627,426.0,201.0,20,1,2258.899999976158,257903.69999992847,7004,love,AF,A,257805,257805,255980,257087,255980,258239,257604,257604,258239,55
56,test,1,con,1,z,Wed Sep 04 2024 14:13:53 GMT-0500 (Central Daylight Time),262000.39999997616,love,800,O,z,z,None,494,295.0,199.0,17,1,1828.1000000238419,260172.29999995232,7004,love,AF,A,259776,259776,258248,259058,258249,260076,259576,259576,260076,56
57,test,1,inc,1,m,Wed Sep 04 2024 14:13:53 GMT-0500 (Central Daylight Time),264003.1999999285,kind,900,O,m,m,None,557,358.0,199.0,86,1,1998.1999999284744,262005.0,7004,bell,AF,A,261713,261713,260081,260995,260081,262079,261512,261513,262079,57
58,test,1,con,1,m,Wed Sep 04 2024 14:13:53 GMT-0500 (Central Daylight Time),266007.5,bell,1000,O,m,m,None,461,262.0,199.0,83,1,1993.4000000953674,264014.09999990463,7004,bell,AF,A,263817,263817,262090,263099,262091,264084,263617,263617,264084,58
59,test,1,con,1,m,Wed Sep 04 2024 14:13:53 GMT-0500 (Central Daylight Time),268094.7999999523,bell,1100,O,m,m,None,455,254.0,201.0,84,1,2077.600000023842,266017.1999999285,7004,bell,AF,A,265905,265905,264093,265202,264094,266171,265704,265704,266171,59
60,test,1,con,1,m,Wed Sep 04 2024 14:13:53 GMT-0500 (Central Daylight Time),270216.39999997616,film,1000,O,m,m,None,579,379.0,200.0,91,1,2112.899999976158,268103.5,7004,film,AF,A,267908,267908,266180,267190,266180,268292,267707,267707,268292,60
61,test,1,inc,1,m,Wed Sep 04 2024 14:13:53 GMT-0500 (Central Daylight Time),272336.89999997616,brutal,900,O,m,m,None,688,488.0,200.0,102,1,2111.100000023842,270225.7999999523,7004,jacket,AF,A,269912,269912,268302,269210,268302,270413,269712,269712,270413,61
62,test,1,con,1,z,Wed Sep 04 2024 14:13:53 GMT-0500 (Central Daylight Time),274457.2999999523,kind,900,O,z,z,None,670,470.0,200.0,10,1,2109.7999999523163,272347.5,7004,kind,AF,A,272049,272049,270424,271332,270424,272533,271849,271849,272533,62
63,test,1,con,1,m,Wed Sep 04 2024 14:13:53 GMT-0500 (Central Daylight Time),276611.7999999523,window,1100,O,m,m,None,524,324.0,200.0,124,1,2143.600000023842,274468.1999999285,7004,window,AF,A,274354,274355,272544,273652,272544,274688,274154,274154,274688,63
64,test,1,inc,1,z,Wed Sep 04 2024 14:13:53 GMT-0500 (Central Daylight Time),278565.7999999523,step,800,O,z,z,None,623,423.0,200.0,21,1,1945.6000000238419,276620.1999999285,7004,love,AF,A,276208,276208,274696,275506,274697,276642,276007,276007,276642,64
65,test,1,con,1,m,Wed Sep 04 2024 14:13:53 GMT-0500 (Central Daylight Time),280603.59999990463,bell,900,O,m,m,None,600,401.0,199.0,82,1,2026.3999999761581,278577.1999999285,7004,bell,AF,A,278262,278262,276653,277560,276653,278680,278062,278062,278680,65
66,test,1,inc,1,z,Wed Sep 04 2024 14:13:53 GMT-0500 (Central Daylight Time),282605.5,step,800,O,z,z,None,679,479.0,200.0,45,1,1993.7000000476837,280611.7999999523,7004,hate,AF,A,280199,280199,278688,279497,278688,280682,279998,279998,280682,66
67,test,1,inc,1,m,Wed Sep 04 2024 14:13:53 GMT-0500 (Central Daylight Time),284827.39999997616,love,1000,O,m,m,None,675,475.0,200.0,71,1,2219.2000000476837,282608.1999999285,7004,step,AF,A,282420,282420,280684,281702,280684,282903,282219,282219,282903,67
68,test,1,con,1,m,Wed Sep 04 2024 14:13:53 GMT-0500 (Central Daylight Time),286831.5,napkin,1000,O,m,m,None,463,263.0,200.0,107,1,1995.7000000476837,284835.7999999523,7004,napkin,AF,A,284640,284640,282912,283923,282912,284908,284440,284440,284907,68
69,test,1,con,1,z,Wed Sep 04 2024 14:13:53 GMT-0500 (Central Daylight Time),288717.6999999285,elated,800,O,z,z,None,554,354.0,200.0,1,1,1877.7999999523163,286839.89999997616,7004,elated,AF,A,286428,286428,284916,285726,284916,286794,286227,286227,286794,69
70,test,1,inc,1,m,Wed Sep 04 2024 14:13:53 GMT-0500 (Central Daylight Time),290905.39999997616,hate,1100,O,m,m,None,560,359.0,201.0,72,1,2178.0,288727.39999997616,7004,step,AF,A,288615,288615,286803,287913,286804,288982,288414,288414,288981,70
71,test,1,con,1,m,Wed Sep 04 2024 14:13:53 GMT-0500 (Central Daylight Time),292926.59999990463,jacket,1100,O,m,m,None,396,197.0,199.0,100,1,2009.8999999761581,290916.6999999285,7004,jacket,AF,A,290803,290803,288993,290101,288993,291003,290603,290603,291003,71
72,test,1,inc,1,z,Wed Sep 04 2024 14:13:53 GMT-0500 (Central Daylight Time),295147.39999997616,rock,900,O,z,z,None,792,592.0,200.0,46,1,2211.2000000476837,292936.1999999285,7004,hate,AF,A,292623,292623,291012,291921,291013,293223,292422,292422,293223,72
73,test,1,inc,1,z,Wed Sep 04 2024 14:13:53 GMT-0500 (Central Daylight Time),297034.5,step,800,O,z,z,None,549,350.0,199.0,13,1,1879.6000000238419,295154.89999997616,7004,kind,AF,A,294744,294744,293231,294042,293231,295111,294544,294544,295110,73
74,test,1,inc,1,z,Wed Sep 04 2024 14:13:53 GMT-0500 (Central Daylight Time),299321.6999999285,window,1100,O,z,z,None,642,443.0,199.0,40,1,2277.2999999523163,297044.39999997616,7004,brutal,AF,A,296948,296948,295120,296231,295121,297398,296747,296748,297398,74
75,test,1,con,1,z,Wed Sep 04 2024 14:13:53 GMT-0500 (Central Daylight Time),301676.6999999285,friend,1000,O,z,z,None,807,607.0,200.0,27,1,2347.6999999284744,299329.0,7004,friend,AF,A,299136,299136,297405,298418,297405,299753,298935,298935,299753,75
76,test,1,con,1,m,Wed Sep 04 2024 14:13:53 GMT-0500 (Central Daylight Time),303780.39999997616,rock,1100,O,m,m,None,456,256.0,200.0,76,1,2094.0,301686.39999997616,7004,rock,AF,A,301590,301591,299762,300872,299763,301857,301390,301390,301856,76
77,test,1,con,1,z,Wed Sep 04 2024 14:13:53 GMT-0500 (Central Daylight Time),305684.2999999523,elated,900,O,z,z,None,481,281.0,200.0,2,1,1892.7999999523163,303791.5,7004,elated,AF,A,303478,303478,301868,302776,301868,303760,303277,303277,303760,77
78,test,1,con,1,z,Wed Sep 04 2024 14:13:53 GMT-0500 (Central Daylight Time),307821.7999999523,friend,900,O,z,z,None,696,497.0,199.0,26,1,2129.2999999523163,305692.5,7004,friend,AF,A,305397,305398,303769,304680,303769,305898,305198,305198,305898,78
79,test,1,inc,1,m,Wed Sep 04 2024 14:13:53 GMT-0500 (Central Daylight Time),309925.59999990463,temper,1000,O,m,m,None,578,379.0,199.0,119,1,2092.5,307833.09999990463,7004,remote,AF,A,307619,307619,305909,306918,305910,308002,307419,307419,308002,79
80,test,1,con,1,z,Wed Sep 04 2024 14:13:53 GMT-0500 (Central Daylight Time),311979.5,kind,800,O,z,z,None,717,517.0,200.0,9,1,2047.1000000238419,309932.39999997616,7004,kind,AF,A,309538,309538,308008,308821,308009,310056,309338,309338,310056,80
81,test,1,con,1,z,Wed Sep 04 2024 14:13:53 GMT-0500 (Central Daylight Time),313916.89999997616,hate,800,O,z,z,None,597,398.0,199.0,41,1,1930.3000000715256,311986.59999990463,7004,hate,AF,A,311593,311593,310063,310875,310063,311993,311393,311393,311993,81
82,test,1,inc,1,m,Wed Sep 04 2024 14:13:53 GMT-0500 (Central Daylight Time),315887.5,brutal,900,O,m,m,None,520,320.0,200.0,126,1,1960.2000000476837,313927.2999999523,7004,window,AF,A,313631,313631,312003,312913,312004,313964,313430,313430,313964,82
83,test,1,inc,1,m,Wed Sep 04 2024 14:13:53 GMT-0500 (Central Daylight Time),318092.7999999523,hate,1100,O,m,m,None,567,366.0,201.0,80,1,2196.0,315896.7999999523,7004,rock,AF,A,315801,315801,313973,315083,313973,316169,315600,315600,316169,83
84,test,1,con,1,m,Wed Sep 04 2024 14:13:53 GMT-0500 (Central Daylight Time),319979.09999990463,napkin,900,O,m,m,None,433,234.0,199.0,106,1,1879.2999999523163,318099.7999999523,7004,napkin,AF,A,317805,317805,316176,317087,316176,318055,317605,317605,318055,84
85,test,1,inc,1,m,Wed Sep 04 2024 14:13:53 GMT-0500 (Central Daylight Time),322016.5,rage,800,O,m,m,None,695,495.0,200.0,93,1,2028.0,319988.5,7004,film,AF,A,319592,319592,318065,318874,318065,320093,319391,319391,320093,85
86,test,1,inc,1,m,Wed Sep 04 2024 14:13:53 GMT-0500 (Central Daylight Time),323903.09999990463,rage,800,O,m,m,None,554,354.0,200.0,69,1,1874.5,322028.59999990463,7004,step,AF,A,321613,321613,320105,320911,320105,321979,321412,321412,321979,86
87,test,1,inc,1,z,Wed Sep 04 2024 14:13:53 GMT-0500 (Central Daylight Time),326107.89999997616,bell,1000,O,z,z,None,667,467.0,200.0,15,1,2196.399999976158,323911.5,7004,kind,AF,A,323716,323716,321988,322999,321988,324184,323516,323516,324184,87
88,test,1,inc,1,z,Wed Sep 04 2024 14:13:53 GMT-0500 (Central Daylight Time),328361.39999997616,window,1100,O,z,z,None,627,427.0,200.0,8,1,2241.5,326119.89999997616,7004,elated,AF,A,326004,326004,324196,325303,324196,326437,325804,325804,326437,88
89,test,1,inc,1,z,Wed Sep 04 2024 14:13:53 GMT-0500 (Central Daylight Time),330599.1999999285,remote,1000,O,z,z,None,688,488.0,200.0,39,1,2228.100000023842,328371.09999990463,7004,brutal,AF,A,328174,328174,326447,327457,326447,328675,327974,327974,328675,89
90,test,1,con,1,z,Wed Sep 04 2024 14:13:53 GMT-0500 (Central Daylight Time),332686.6999999285,elated,1000,O,z,z,None,554,354.0,200.0,3,1,2078.100000023842,330608.59999990463,7004,elated,AF,A,330396,330396,328685,329694,328685,330763,330195,330195,330763,90
91,test,1,inc,1,z,Wed Sep 04 2024 14:13:53 GMT-0500 (Central Daylight Time),334824.09999990463,rock,900,O,z,z,None,685,486.0,199.0,54,1,2134.1999999284744,332689.89999997616,7004,rage,AF,A,332400,332400,330766,331682,330766,332900,332200,332200,332900,91
92,test,1,inc,1,m,Wed Sep 04 2024 14:13:53 GMT-0500 (Central Daylight Time),336928.59999990463,love,1000,O,m,m,None,570,370.0,200.0,79,1,2092.899999976158,334835.6999999285,7004,rock,AF,A,334621,334621,332912,333919,332912,335005,334420,334420,335005,92
93,test,1,inc,1,m,Wed Sep 04 2024 14:13:53 GMT-0500 (Central Daylight Time),339049.89999997616,temper,1000,O,m,m,None,569,369.0,200.0,103,1,2111.899999976158,336938.0,7004,jacket,AF,A,336742,336742,335014,336024,335014,337126,336542,336542,337126,93
94,test,1,inc,1,m,Wed Sep 04 2024 14:13:53 GMT-0500 (Central Daylight Time),341103.7999999523,kind,900,O,m,m,None,612,412.0,200.0,70,1,2046.0,339057.7999999523,7004,step,AF,A,338763,338763,337134,338045,337134,339180,338562,338562,339180,94
95,test,1,inc,1,m,Wed Sep 04 2024 14:13:53 GMT-0500 (Central Daylight Time),343040.2999999523,elated,800,O,m,m,None,601,402.0,199.0,109,1,1928.1000000238419,341112.1999999285,7004,napkin,AF,A,340700,340700,339188,339998,339188,341116,340500,340500,341116,95
96,test,1,inc,1,m,Wed Sep 04 2024 14:13:53 GMT-0500 (Central Daylight Time),344961.1999999285,elated,800,O,m,m,None,593,394.0,199.0,125,1,1914.6000000238419,343046.59999990463,7004,window,AF,A,342637,342637,341123,341935,341123,343037,342437,342437,343037,96
97,test,1,inc,1,z,Wed Sep 04 2024 14:13:53 GMT-0500 (Central Daylight Time),347098.6999999285,rock,900,O,z,z,None,700,500.0,200.0,14,1,2126.7999999523163,344971.89999997616,7004,kind,AF,A,344674,344674,343048,343956,343048,345175,344474,344474,345175,97
98,test,1,con,1,m,Wed Sep 04 2024 14:13:53 GMT-0500 (Central Daylight Time),349235.89999997616,rock,1000,O,m,m,None,615,416.0,199.0,75,1,2128.7000000476837,347107.1999999285,7004,rock,AF,A,346895,346895,345183,346193,345184,347312,346695,346695,347312,98
99,test,1,con,1,m,Wed Sep 04 2024 14:13:53 GMT-0500 (Central Daylight Time),351623.7999999523,remote,1100,O,m,m,None,736,537.0,199.0,116,1,2375.7000000476837,349248.09999990463,7004,remote,AF,A,349150,349150,347324,348432,347325,349700,348949,348950,349700,99
100,test,1,con,1,z,Wed Sep 04 2024 14:13:53 GMT-0500 (Central Daylight Time),353761.7999999523,temper,800,O,z,z,None,794,594.0,200.0,57,1,2127.5,351634.2999999523,7004,temper,AF,A,351237,351237,349710,350519,349711,351838,351036,351036,351838,100
101,test,1,inc,1,m,Wed Sep 04 2024 14:13:53 GMT-0500 (Central Daylight Time),356065.6999999285,hate,1100,O,m,m,None,667,468.0,199.0,88,1,2292.6999999284744,353773.0,7004,bell,AF,A,353658,353658,351849,352957,351850,354142,353458,353458,354142,101
102,test,1,con,1,m,Wed Sep 04 2024 14:13:53 GMT-0500 (Central Daylight Time),358437.1999999285,film,1100,O,m,m,None,741,541.0,200.0,92,1,2362.5,356074.6999999285,7004,film,AF,A,355963,355963,354151,355261,354151,356513,355762,355762,356513,102
103,test,1,inc,1,m,Wed Sep 04 2024 14:13:53 GMT-0500 (Central Daylight Time),360607.6999999285,rage,800,O,m,m,None,830,629.0,201.0,85,1,2162.100000023842,358445.59999990463,7004,bell,AF,A,358050,358050,356522,357332,356522,358684,357849,357849,358684,103
104,test,1,inc,1,m,Wed Sep 04 2024 14:13:53 GMT-0500 (Central Daylight Time),362812.09999990463,friend,1100,O,m,m,None,563,364.0,199.0,120,1,2194.0,360618.09999990463,7004,remote,AF,A,360522,360522,358694,359804,358694,360888,360322,360322,360888,104
105,test,1,inc,1,z,Wed Sep 04 2024 14:13:53 GMT-0500 (Central Daylight Time),365032.7999999523,jacket,800,O,z,z,None,877,677.0,200.0,37,1,2213.899999976158,362818.89999997616,7004,brutal,AF,A,362426,362426,360895,361708,360895,363109,362225,362225,363109,105
106,test,1,inc,1,z,Wed Sep 04 2024 14:13:53 GMT-0500 (Central Daylight Time),367070.5,napkin,900,O,z,z,None,597,397.0,200.0,62,1,2027.0,365043.5,7004,temper,AF,A,364747,364747,363120,364029,363120,365147,364546,364546,365146,106
107,test,1,con,1,z,Wed Sep 04 2024 14:13:53 GMT-0500 (Central Daylight Time),369157.6999999285,rage,900,O,z,z,None,647,447.0,200.0,50,1,2077.5,367080.1999999285,7004,rage,AF,A,366784,366784,365156,366066,365157,367234,366583,366583,367234,107
108,test,1,inc,1,m,Wed Sep 04 2024 14:13:53 GMT-0500 (Central Daylight Time),371245.5,temper,1000,O,m,m,None,564,364.0,200.0,127,1,2079.7000000476837,369165.7999999523,7004,window,AF,A,368955,368955,367242,368253,367242,369322,368754,368754,369322,108
109,test,1,con,1,z,Wed Sep 04 2024 14:13:53 GMT-0500 (Central Daylight Time),373532.89999997616,temper,1000,O,z,z,None,756,556.0,200.0,59,1,2279.399999976158,371253.5,7004,temper,AF,A,371043,371043,369330,370340,369330,371609,370842,370842,371609,109
110,test,1,con,1,m,Wed Sep 04 2024 14:13:53 GMT-0500 (Central Daylight Time),375554.6999999285,jacket,900,O,m,m,None,584,384.0,200.0,98,1,2014.3999999761581,373540.2999999523,7004,jacket,AF,A,373246,373246,371616,372528,371617,373631,373045,373045,373631,110
111,test,1,inc,1,z,Wed Sep 04 2024 14:13:53 GMT-0500 (Central Daylight Time),377474.59999990463,jacket,800,O,z,z,None,592,393.0,199.0,5,1,1907.8999999761581,375566.6999999285,7004,elated,AF,A,375150,375150,373643,374448,373643,375551,374950,374950,375551,111
112,test,1,inc,1,m,Wed Sep 04 2024 14:13:53 GMT-0500 (Central Daylight Time),379545.0,kind,900,O,m,m,None,627,428.0,199.0,78,1,2061.5,377483.5,7004,rock,AF,A,377187,377187,375560,376470,375560,377621,376987,376987,377621,112
113,test,1,con,1,z,Wed Sep 04 2024 14:13:53 GMT-0500 (Central Daylight Time),381882.89999997616,temper,1100,O,z,z,None,716,516.0,200.0,60,1,2331.2000000476837,379551.6999999285,7004,temper,AF,A,379442,379442,377628,378740,377628,379959,379241,379241,379959,113
114,test,1,inc,1,z,Wed Sep 04 2024 14:13:53 GMT-0500 (Central Daylight Time),384171.39999997616,bell,1000,O,z,z,None,736,536.0,200.0,47,1,2278.3000000715256,381893.09999990463,7004,hate,AF,A,381695,381695,379969,380978,379969,382248,381495,381495,382247,114
115,test,1,inc,1,z,Wed Sep 04 2024 14:13:53 GMT-0500 (Central Daylight Time),386123.7999999523,step,800,O,z,z,None,615,416.0,199.0,53,1,1943.5,384180.2999999523,7004,rage,AF,A,383783,383783,382256,383066,382257,384200,383583,383583,384200,115
116,test,1,inc,1,m,Wed Sep 04 2024 14:13:53 GMT-0500 (Central Daylight Time),388411.6999999285,friend,1100,O,m,m,None,641,440.0,201.0,128,1,2278.2999999523163,386133.39999997616,7004,window,AF,A,386038,386038,384209,385320,384210,386488,385837,385837,386488,116
117,test,1,con,1,z,Wed Sep 04 2024 14:13:53 GMT-0500 (Central Daylight Time),390282.1999999285,rage,800,O,z,z,None,517,317.0,200.0,49,1,1859.7999999523163,388422.39999997616,7004,rage,AF,A,388026,388026,386498,387307,386499,388358,387825,387825,388358,117
118,test,1,con,1,m,Wed Sep 04 2024 14:13:53 GMT-0500 (Central Daylight Time),392520.0,window,1000,O,m,m,None,703,503.0,200.0,123,1,2229.5,390290.5,7004,window,AF,A,390080,390080,388367,389377,388367,390596,389878,389879,390596,118
119,test,1,inc,1,m,Wed Sep 04 2024 14:13:53 GMT-0500 (Central Daylight Time),394490.6999999285,elated,800,O,m,m,None,626,426.0,200.0,101,1,1959.6000000238419,392531.09999990463,7004,jacket,AF,A,392133,392133,390607,391415,390608,392567,391933,391933,392567,119
120,test,1,con,1,m,Wed Sep 04 2024 14:13:53 GMT-0500 (Central Daylight Time),396494.7999999523,window,900,O,m,m,None,554,355.0,199.0,122,1,1993.6000000238419,394501.1999999285,7004,window,AF,A,394204,394204,392577,393486,392578,394571,394004,394004,394571,120
121,test,1,inc,1,m,Wed Sep 04 2024 14:13:53 GMT-0500 (Central Daylight Time),398682.2999999523,brutal,900,O,m,m,None,735,535.0,200.0,118,1,2175.600000023842,396506.6999999285,7004,remote,AF,A,396208,396208,394583,395490,394583,396759,396007,396007,396758,121
122,test,1,inc,1,z,Wed Sep 04 2024 14:13:53 GMT-0500 (Central Daylight Time),400953.5,remote,1000,O,z,z,None,726,527.0,199.0,7,1,2263.100000023842,398690.39999997616,7004,elated,AF,A,398496,398496,396766,397784,396767,399030,398296,398296,399029,122
123,test,1,inc,1,z,Wed Sep 04 2024 14:13:53 GMT-0500 (Central Daylight Time),403340.2999999523,film,1100,O,z,z,None,747,547.0,200.0,56,1,2378.100000023842,400962.1999999285,7004,rage,AF,A,400867,400867,399038,400149,399039,401416,400666,400666,401416,123
124,test,1,con,1,z,Wed Sep 04 2024 14:13:53 GMT-0500 (Central Daylight Time),405579.1999999285,kind,1100,O,z,z,None,600,400.0,200.0,12,1,2236.100000023842,403343.09999990463,7004,kind,AF,A,403255,403255,401419,402537,401419,403655,403054,403054,403655,124
125,test,1,inc,1,m,Wed Sep 04 2024 14:13:53 GMT-0500 (Central Daylight Time),407816.2999999523,friend,1100,O,m,m,None,603,403.0,200.0,112,1,2229.600000023842,405586.6999999285,7004,napkin,AF,A,405476,405476,403663,404774,403663,405892,405276,405276,405892,125
126,test,1,inc,1,z,Wed Sep 04 2024 14:13:53 GMT-0500 (Central Daylight Time),409987.39999997616,remote,1000,O,z,z,None,650,450.0,200.0,31,1,2162.3000000715256,407825.09999990463,7004,friend,AF,A,407613,407613,405901,406911,405901,408063,407413,407413,408063,126
127,test,1,con,1,m,Wed Sep 04 2024 14:13:53 GMT-0500 (Central Daylight Time),411908.7999999523,jacket,800,O,m,m,None,583,383.0,200.0,97,1,1911.7000000476837,409997.09999990463,7004,jacket,AF,A,409600,409600,408073,408882,408073,409985,409400,409400,409985,127
128,test,1,con,1,z,Wed Sep 04 2024 14:13:53 GMT-0500 (Central Daylight Time),413945.0,love,1000,O,z,z,None,511,311.0,200.0,19,1,2028.2000000476837,411916.7999999523,7004,love,AF,A,411704,411704,409993,411003,409993,412021,411504,411504,412021,128
